"Time (s)","Acceleration x (m/s^2)","Acceleration y (m/s^2)","Acceleration z (m/s^2)"
1.469485200E-2,-6.412764788E-1,1.038485050E0,9.781859398E0
1.681808100E-2,-4.737788737E-1,6.460621357E-1,9.695717812E0
1.894323700E-2,-6.221338734E-2,1.067198873E0,9.571290970E0
2.106834100E-2,-4.785645287E-3,9.571290612E-1,9.839286804E0
2.319344500E-2,3.349951804E-1,9.044869542E-1,1.038485050E1
2.531854900E-2,3.014956415E-1,5.024927258E-1,1.036092186E1
2.744365400E-2,5.264209956E-2,5.886343718E-1,1.032263660E1
2.956875800E-2,3.158525825E-1,1.100698471E0,1.026520920E1
3.169391400E-2,1.052841991E-1,1.076770186E0,9.891928673E0
3.381901800E-2,-1.722832322E-1,9.379864931E-1,9.585647583E0
3.594412200E-2,-5.264209956E-2,1.014556766E0,9.657432556E0
3.806922700E-2,-2.297109663E-1,1.244267821E0,1.005464077E1
4.019433100E-2,-2.871387303E-1,1.043270707E0,1.025085258E1
4.231943500E-2,4.211367965E-1,6.987041831E-1,1.042313576E1
4.444453900E-2,8.566305041E-1,1.579262912E-1,1.060977554E1
4.656969500E-2,5.982056856E-1,3.876372576E-1,1.055713367E1
4.869479900E-2,1.435693651E-1,1.014556766E0,1.030349445E1
5.081990400E-2,-2.488535494E-1,1.134197950E0,9.911071777E0
5.294500800E-2,-5.024927258E-1,9.571290612E-1,9.480362892E0
5.507011200E-2,-2.632105052E-1,8.566305041E-1,9.437292099E0
5.719521600E-2,-1.579262912E-1,1.028913736E0,9.652647018E0
5.932037200E-2,1.914258115E-2,1.196411371E0,9.968499184E0
6.144547700E-2,2.775674164E-1,8.183453679E-1,1.048056316E1
6.357058100E-2,3.302095234E-1,6.652047038E-1,1.085862923E1
6.569568500E-2,2.105683982E-1,8.279166222E-1,1.078684425E1
6.782078900E-2,3.062812984E-1,1.028913736E0,1.034177971E1
6.994589300E-2,1.339980662E-1,1.287338614E0,9.757930756E0
7.207104900E-2,-1.674975902E-1,1.067198873E0,9.274580956E0
7.419615400E-2,-4.785645306E-1,1.134197950E0,9.446864128E0
7.632125800E-2,-3.302095234E-1,1.320838094E0,9.734002113E0
7.844636200E-2,-1.674975902E-1,1.062413216E0,9.896714211E0
8.057146600E-2,5.742774606E-1,7.082754970E-1,1.003549862E1
8.269657000E-2,6.173482537E-1,3.828516304E-1,1.002592659E1
8.482167400E-2,3.493520916E-1,1.770688742E-1,1.000199890E1
8.694683100E-2,-1.196411327E-1,1.105484009E0,1.000678444E1
8.907193500E-2,-4.019941986E-1,1.756331801E0,9.863214493E0
9.119703900E-2,-5.359922647E-1,1.110269666E0,9.724431038E0
9.332214300E-2,-1.818545163E-1,1.033699393E0,9.475577354E0
9.544724700E-2,-1.244267747E-1,1.450050473E0,9.595218658E0
9.757235200E-2,-1.292124242E-1,1.272981644E0,1.002114105E1
9.969750800E-2,9.092725813E-2,8.805587292E-1,1.040877819E1
1.018226120E-1,-5.264209956E-2,5.168496966E-1,1.060020447E1
1.039477160E-1,-1.052841991E-1,6.652047038E-1,1.083470058E1
1.060728200E-1,-9.571290761E-2,1.167697430E0,9.676574707E0
1.081979240E-1,-3.062812984E-1,1.239482164E0,9.466006279E0
1.103230290E-1,-3.158525825E-1,1.076770186E0,9.829715729E0
1.124481850E-1,-3.972085714E-1,1.277767301E0,9.801001549E0
1.145732890E-1,-3.684946895E-1,1.435693622E0,9.805787086E0
1.166983930E-1,6.221338734E-2,1.105484009E0,9.863214493E0
1.188234970E-1,5.216353536E-1,8.087740541E-1,9.915857315E0
1.209486020E-1,6.699903607E-1,5.694918036E-1,1.005942631E1
1.230737060E-1,3.206382394E-1,9.906286001E-1,1.040877819E1
1.251988100E-1,-2.105683982E-1,1.392622828E0,1.016949654E1
1.273239660E-1,-6.412764788E-1,1.368694544E0,9.370293617E0
1.294490700E-1,-4.642075896E-1,1.450050473E0,9.164510727E0
1.315741740E-1,-2.632105052E-1,1.426122308E0,9.260223389E0
1.336992790E-1,-2.727817893E-1,1.689332843E0,9.475577354E0
1.358243830E-1,-1.674975902E-1,1.220339537E0,9.901499748E0
1.379494870E-1,-1.004985496E-1,9.619147182E-1,1.037527943E1
1.400745910E-1,9.571290575E-3,8.422735929E-1,1.031785107E1
1.421997470E-1,2.201396823E-1,5.694918036E-1,9.872786522E0
1.443248520E-1,4.307080805E-2,9.236295223E-1,9.710074425E0
1.464499560E-1,-1.962114573E-1,1.325623751E0,9.332008362E0
1.485750600E-1,-2.201396823E-1,1.186840057E0,8.997013092E0
1.507001640E-1,-3.062812984E-1,1.354337573E0,9.231510162E0
1.528252680E-1,-2.105683982E-1,1.540977836E0,9.528220177E0
1.549504240E-1,5.312066078E-1,8.949156404E-1,9.719645500E0
1.570755290E-1,1.014556766E0,5.838487148E-1,1.004985523E1
1.592006330E-1,8.949156404E-1,5.359922647E-1,1.004985523E1
1.613257370E-1,1.196411327E-1,8.039883971E-1,9.973284721E0
1.634508410E-1,-2.919243574E-1,1.349551916E0,9.887143135E0
1.655759450E-1,-5.838487148E-1,1.311266780E0,9.566504478E0
1.677011020E-1,-2.919243574E-1,9.762716293E-1,9.269794464E0
1.698262060E-1,-2.057827413E-1,1.143769264E0,9.265008926E0
1.719513100E-1,-3.780659735E-1,1.598405480E0,9.327222824E0
1.740764140E-1,-1.244267747E-1,1.316052437E0,9.418149948E0
1.762015180E-1,1.196411327E-1,6.460621357E-1,9.633503914E0
1.783266220E-1,9.092725813E-2,6.317051649E-1,9.623932838E0
1.804517790E-1,1.914258152E-1,1.249053478E0,9.734002113E0
1.825768830E-1,5.264209956E-2,1.220339537E0,9.743574142E0
1.847019870E-1,-2.009970993E-1,1.100698471E0,9.714859962E0
1.868270910E-1,-4.689932466E-1,1.182054400E0,9.533005714E0
1.889521950E-1,-3.637090325E-1,1.473978758E0,9.796216011E0
1.910772990E-1,-8.135596663E-2,1.392622828E0,1.016471100E1
1.932024040E-1,8.087740541E-1,8.997012973E-1,1.026520920E1
1.953275600E-1,8.997012973E-1,3.158525825E-1,1.030827999E1
1.974526640E-1,5.168496966E-1,6.125625968E-1,1.048056316E1
1.995777680E-1,9.571290575E-3,1.229910851E0,1.043749237E1
2.017028720E-1,-4.977070987E-1,1.378265858E0,9.877572060E0
2.038279770E-1,-5.359922647E-1,9.714859724E-1,9.308079720E0
2.059530810E-1,-3.445664644E-1,9.379864931E-1,9.083154678E0
2.080781850E-1,-3.349951804E-1,1.320838094E0,9.279366493E0
2.102033410E-1,-2.297109663E-1,1.363908887E0,9.523433685E0
2.123284450E-1,1.435693540E-2,1.024128079E0,9.963713646E0
2.144535490E-1,2.009970993E-1,7.704889178E-1,1.049970531E1
2.165786540E-1,1.866401732E-1,5.647061467E-1,1.060020447E1
2.187037580E-1,3.541377485E-1,1.105484009E0,1.043749237E1
2.208288620E-1,1.914258152E-1,1.143769264E0,9.829715729E0
2.229540180E-1,-2.249253243E-1,1.057627559E0,9.437292099E0
2.250791220E-1,-4.354937077E-1,1.172483087E0,9.513862610E0
2.272042270E-1,-2.057827413E-1,1.368694544E0,9.815358162E0
2.293293310E-1,5.742774159E-2,1.052842021E0,1.014556789E1
2.314544350E-1,3.684946895E-1,7.130611539E-1,1.037049294E1
2.335795390E-1,6.029912829E-1,3.206382394E-1,1.019820976E1
2.357046950E-1,1.770688742E-1,7.657032460E-2,9.891928673E0
2.378297990E-1,-3.828516230E-2,9.906286001E-1,9.533005714E0
2.399549040E-1,-3.972085714E-1,1.239482164E0,9.408578873E0
2.420800080E-1,-2.871387303E-1,1.019342422E0,9.690931320E0
2.442051120E-1,-2.392822690E-2,1.110269666E0,9.829715729E0
2.463302160E-1,-1.962114573E-1,1.167697430E0,9.585647583E0
2.484553720E-1,-2.105683982E-1,1.225125194E0,9.734002113E0
2.505804770E-1,-5.742774159E-2,1.095912814E0,1.019342422E1
2.527055810E-1,4.259224236E-1,5.407779217E-1,1.035135078E1
2.548306850E-1,5.072783828E-1,6.125625968E-1,1.030827999E1
2.569557890E-1,4.689932466E-1,1.038485050E0,1.022692394E1
2.590808930E-1,1.579262912E-1,1.067198873E0,1.004985523E1
2.612059970E-1,1.052841991E-1,9.810572863E-1,9.925428391E0
2.633311540E-1,-1.914258152E-1,1.167697430E0,9.963713646E0
2.654562580E-1,-5.359922647E-1,1.115055323E0,1.003549862E1
2.675813620E-1,1.770688742E-1,9.044869542E-1,1.022692394E1
2.697064660E-1,5.599204898E-1,3.924229145E-1,1.034656525E1
2.718315700E-1,5.312066078E-1,3.684946895E-1,1.041835022E1
2.739566740E-1,7.178468257E-2,8.374879360E-1,1.050449181E1
2.760817790E-1,-1.052841991E-1,1.105484009E0,1.026042366E1
2.782069350E-1,-3.637090325E-1,1.162911773E0,9.628718376E0
2.803320390E-1,-3.014956415E-1,1.081555843E0,9.207581520E0
2.824571430E-1,-3.349951655E-2,1.129412293E0,9.308079720E0
2.845821950E-1,2.392822690E-2,1.287338614E0,9.762716293E0
2.867073520E-1,1.100698411E-1,1.052842021E0,1.021256733E1
2.888324560E-1,-2.392822690E-2,7.992027402E-1,1.063370419E1
2.909576120E-1,2.392822653E-1,6.508477330E-1,1.090648556E1
2.930827160E-1,5.072783828E-1,8.087740541E-1,1.066720295E1
2.952078200E-1,1.004985496E-1,1.143769264E0,9.911071777E0
2.973329240E-1,-2.392822653E-1,1.186840057E0,9.375079155E0
2.994580290E-1,-4.929214716E-1,9.236295223E-1,9.279366493E0
3.015831330E-1,-3.972085714E-1,1.311266780E0,9.432506561E0
3.037082890E-1,-1.244267747E-1,1.191625714E0,9.638289452E0
3.058333930E-1,3.014956415E-1,9.140582681E-1,1.006421185E1
3.079584970E-1,4.163511395E-1,6.508477330E-1,1.053320503E1
3.100836020E-1,1.627119333E-1,2.344966233E-1,1.038485050E1
3.122087060E-1,-6.699903309E-2,8.709874153E-1,1.015513897E1
3.143337580E-1,-3.014956415E-1,1.459621787E0,9.805787086E0
3.164589140E-1,-3.637090325E-1,1.076770186E0,9.537791252E0
3.185840700E-1,1.052841991E-1,1.009771109E0,9.518648148E0
3.207091740E-1,1.148554832E-1,1.354337573E0,9.528220177E0
3.228342790E-1,-3.828516230E-2,1.239482164E0,9.934999466E0
3.249593830E-1,1.579262912E-1,1.191625714E0,1.028913784E1
3.270844870E-1,2.536391914E-1,9.236295223E-1,1.034177971E1
3.292095910E-1,1.722832322E-1,8.374879360E-1,1.027478027E1
3.313346950E-1,4.977070987E-1,1.296909928E0,1.041835022E1
3.334598520E-1,2.249253243E-1,1.225125194E0,1.015513897E1
3.355849560E-1,0.000000000E0,1.009771109E0,9.743574142E0
3.377100600E-1,-2.823530734E-1,1.316052437E0,9.676574707E0
3.398351640E-1,-4.737788737E-1,1.229910851E0,9.920642853E0
3.419602680E-1,2.249253243E-1,1.091127157E0,1.044706345E1
3.440854240E-1,7.082754970E-1,6.412764788E-1,1.064806080E1
3.462105290E-1,4.642075896E-1,4.211367965E-1,1.055713367E1
3.483356330E-1,1.674975902E-1,9.954141974E-1,1.072941685E1
3.504607370E-1,4.785645381E-2,1.301695466E0,1.065284634E1
3.525858410E-1,-9.092725813E-2,9.427721500E-1,9.920642853E0
3.547109450E-1,-1.100698411E-1,9.858429432E-1,9.379864693E0
3.568360490E-1,-8.614161611E-2,9.667003751E-1,9.518648148E0
3.589612060E-1,8.135596663E-2,1.392622828E0,9.724431038E0
3.610863100E-1,2.153540403E-1,1.363908887E0,1.013599682E1
3.632114140E-1,-1.674975902E-1,9.475577474E-1,1.058106136E1
3.653365180E-1,-1.339980662E-1,9.667003751E-1,1.082991505E1
3.674616220E-1,3.110669553E-1,1.081555843E0,1.087298584E1
3.695867270E-1,6.699903309E-2,1.095912814E0,1.047099209E1
3.717118830E-1,-1.339980662E-1,1.244267821E0,9.719645500E0
3.738369870E-1,-2.679961324E-1,9.571290612E-1,9.509077072E0
3.759620910E-1,-3.972085714E-1,1.282552958E0,9.772287369E0
3.780872470E-1,-4.307080805E-1,1.464407444E0,9.738788605E0
3.802122990E-1,1.962114573E-1,8.805587292E-1,9.896714211E0
3.823374040E-1,5.024927258E-1,8.039883971E-1,1.037527943E1
3.844625600E-1,4.594219327E-1,2.632105052E-1,1.026999474E1
3.865876640E-1,2.153540403E-1,6.364908218E-1,1.003549862E1
3.887127680E-1,-1.435693540E-2,1.335195065E0,9.992427826E0
3.908378720E-1,3.828516230E-2,1.004985452E0,9.853643417E0
3.929629770E-1,3.589234054E-1,8.039883971E-1,9.848857880E0
3.950880810E-1,7.657032460E-2,1.368694544E0,9.868000984E0
3.972131850E-1,-3.158525825E-1,1.607976794E0,9.815358162E0
3.993382890E-1,-1.531406492E-1,1.339980721E0,1.003071213E1
4.014634450E-1,-1.196411327E-1,8.422735929E-1,1.017906761E1
4.035885490E-1,-1.866401732E-1,6.987041831E-1,1.008814049E1
4.057136540E-1,3.828516304E-1,1.119840980E0,1.006421185E1
4.078387580E-1,1.435693651E-1,9.858429432E-1,1.004506969E1
4.099638620E-1,-2.632105052E-1,1.244267821E0,9.958928108E0
4.120889660E-1,-4.881358147E-1,1.177268744E0,9.872786522E0
4.142141220E-1,-7.417750359E-1,1.258624673E0,9.824930191E0
4.163392270E-1,-3.876372576E-1,1.560120344E0,9.896714211E0
4.184643310E-1,3.828516304E-1,1.258624673E0,1.013121128E1
4.205894350E-1,5.934200287E-1,1.866401732E-1,1.050449181E1
4.227145390E-1,4.402793646E-1,4.881358147E-1,1.075334454E1
4.248395910E-1,1.627119333E-1,1.100698471E0,1.044227791E1
4.269647990E-1,-9.571290761E-2,8.805587292E-1,1.000199890E1
4.290899040E-1,-1.004985496E-1,9.092726111E-1,9.824930191E0
4.312150080E-1,-2.344966233E-1,1.182054400E0,9.638289452E0
4.333401120E-1,-2.105683982E-1,1.373480201E0,9.399007797E0
4.354652160E-1,-2.871387079E-2,1.694118381E0,9.891928673E0
4.375903200E-1,-3.254238665E-1,1.253839016E0,1.031306553E1
4.397154240E-1,-1.627119333E-1,8.231309652E-1,1.022692394E1
4.418405810E-1,3.589234054E-1,8.614161611E-1,1.033220863E1
4.439656850E-1,1.148554832E-1,7.034898400E-1,1.013599682E1
4.460907890E-1,-2.297109663E-1,1.225125194E0,9.662218094E0
4.482158930E-1,-2.440679073E-1,1.086341500E0,9.255437851E0
4.503409970E-1,-4.498506486E-1,1.138983607E0,9.250652313E0
4.524661020E-1,-3.397808075E-1,1.593619823E0,9.513862610E0
4.545912580E-1,-9.571290575E-3,1.229910851E0,9.652647018E0
4.567163620E-1,6.077769399E-1,7.944171429E-1,9.801001549E0
4.588414660E-1,6.460621357E-1,2.727817893E-1,9.968499184E0
4.609665700E-1,3.397808075E-1,6.460621357E-1,9.930213928E0
4.630916740E-1,-5.264209956E-2,1.258624673E0,9.834501266E0
4.652167790E-1,-8.135596663E-2,1.186840057E0,9.729216576E0
4.673418830E-1,3.828516230E-2,8.183453679E-1,9.633503914E0
4.694670390E-1,3.349951655E-2,1.201196909E0,9.542576790E0
4.715921430E-1,-2.009970993E-1,1.603191137E0,9.456435204E0
4.737172470E-1,0.000000000E0,1.387837172E0,9.786644936E0
4.758423520E-1,9.571290761E-2,8.853443861E-1,1.003549862E1
4.779674560E-1,1.148554832E-1,5.982056856E-1,9.949356079E0
4.800926120E-1,3.493520916E-1,9.667003751E-1,9.906285286E0
4.822177160E-1,4.163511395E-1,8.901300430E-1,9.853643417E0
4.843428200E-1,-1.627119333E-1,9.475577474E-1,9.619147301E0
4.864679240E-1,7.657032460E-2,1.009771109E0,9.738788605E0
4.885930290E-1,-8.709874153E-1,1.344766378E0,9.757930756E0
4.907181330E-1,8.135596663E-2,1.698904037E0,9.939785004E0
4.928432890E-1,3.637090325E-1,9.810572863E-1,1.002592659E1
4.949683410E-1,7.944171429E-1,6.269195080E-1,1.023170948E1
4.970934970E-1,7.609176040E-1,6.317051649E-1,1.020778179E1
4.992186020E-1,3.780659735E-1,1.129412293E0,1.042792130E1
5.013437060E-1,-5.264209956E-2,1.081555843E0,9.992427826E0
5.034688100E-1,-4.785645381E-2,7.465606928E-1,9.332008362E0
5.055939140E-1,-6.699903309E-2,8.518448472E-1,9.107083321E0
5.077190180E-1,-3.637090325E-1,1.186840057E0,9.035298347E0
5.098441740E-1,-9.571290761E-2,1.756331801E0,9.217152596E0
5.119692790E-1,1.196411327E-1,1.043270707E0,9.652647018E0
5.140943830E-1,2.392822690E-2,6.029912829E-1,1.017906761E1
5.162194870E-1,1.627119333E-1,6.987041831E-1,1.006421185E1
5.183445910E-1,5.264210105E-1,1.071984529E0,9.743574142E0
5.204696950E-1,2.249253243E-1,7.944171429E-1,9.403793335E0
5.225948520E-1,2.775674164E-1,8.422735929E-1,9.341579437E0
5.247199560E-1,5.264209956E-2,1.325623751E0,9.485149384E0
5.268450600E-1,-4.307080805E-2,1.655833244E0,9.633503914E0
5.289701640E-1,1.148554832E-1,1.091127157E0,9.820143700E0
5.310952680E-1,7.130611539E-1,9.092726111E-1,9.767501831E0
5.332203720E-1,4.115654826E-1,6.317051649E-1,9.657432556E0
5.353455290E-1,9.092725813E-2,3.684946895E-1,9.968499184E0
5.374706330E-1,1.004985496E-1,9.523434043E-1,1.008335495E1
5.395957370E-1,-2.105683982E-1,9.188438654E-1,9.729216576E0
5.417208410E-1,9.571290761E-2,8.183453679E-1,9.394221306E0
5.438459450E-1,1.435693540E-2,1.158126116E0,9.442078590E0
5.459710490E-1,-1.962114573E-1,1.450050473E0,9.399007797E0
5.480961540E-1,-4.259224236E-1,1.507478237E0,9.772287369E0
5.502213100E-1,1.148554832E-1,1.148554921E0,1.029870892E1
5.523464140E-1,-2.775674164E-1,5.647061467E-1,1.028913784E1
5.544715180E-1,-1.914258115E-2,8.470591903E-1,9.939785004E0
5.565966220E-1,4.881358147E-1,8.183453679E-1,9.686145782E0
5.587217270E-1,2.584248483E-1,7.704889178E-1,9.657432556E0
5.608468310E-1,-3.349951655E-2,1.134197950E0,9.576076508E0
5.629719350E-1,-5.838487148E-1,1.325623751E0,9.432506561E0
5.650970910E-1,-7.609176040E-1,1.153340459E0,9.523433685E0
5.672221950E-1,1.866401732E-1,1.478764415E0,9.978070259E0
5.693472990E-1,6.508477330E-1,6.747759581E-1,1.027478027E1
5.714724040E-1,8.135597110E-1,2.919243574E-1,1.037049294E1
5.735975080E-1,7.130611539E-1,9.332008362E-1,1.062413216E1
5.757226120E-1,4.881358147E-1,9.284151793E-1,1.029870892E1
5.778477680E-1,4.307080805E-1,6.987041831E-1,9.614361763E0
5.799728720E-1,1.339980662E-1,7.992027402E-1,9.293723106E0
5.820979770E-1,-7.178468257E-2,1.220339537E0,9.217152596E0
5.842230810E-1,-5.742774159E-2,1.263410330E0,9.552147865E0
5.863481850E-1,-8.614161611E-2,8.470591903E-1,1.006899738E1
5.884732890E-1,-1.148554832E-1,5.886343718E-1,1.021256733E1
5.905984450E-1,5.264209956E-2,5.216353536E-1,1.011685371E1
5.927235490E-1,3.062812984E-1,8.853443861E-1,1.025085258E1
5.948486540E-1,2.249253243E-1,8.662018180E-1,1.016471100E1
5.969737580E-1,1.052841991E-1,7.226324677E-1,9.824930191E0
5.990988620E-1,-2.536391914E-1,7.800601721E-1,9.934999466E0
6.012239660E-1,-3.637090325E-1,1.426122308E0,9.848857880E0
6.033490700E-1,-1.387837082E-1,1.004985452E0,9.815358162E0
6.054742270E-1,3.637090325E-1,7.178468108E-1,1.010249710E1
6.075993310E-1,3.876372576E-1,4.737788737E-1,1.021256733E1
6.097244350E-1,1.674975902E-1,2.153540403E-1,1.004028416E1
6.118495390E-1,-8.614161611E-2,1.028913736E0,9.949356079E0
6.139746430E-1,-6.173482537E-1,1.167697430E0,9.719645500E0
6.160997470E-1,-3.302095234E-1,7.369893789E-1,9.370293617E0
6.182249040E-1,-2.392822690E-2,1.177268744E0,9.489934921E0
6.203500080E-1,-9.571290575E-3,1.574477315E0,9.671789169E0
6.224751120E-1,-9.571290575E-3,1.239482164E0,1.006421185E1
6.246002160E-1,3.206382394E-1,8.231309652E-1,1.049013424E1
6.267253200E-1,2.775674164E-1,6.364908218E-1,1.044227791E1
6.288504240E-1,2.344966233E-1,8.422735929E-1,1.031785107E1
6.309755290E-1,5.264210105E-1,1.234696507E0,1.021735287E1
6.331006850E-1,2.488535494E-1,7.944171429E-1,1.036570740E1
6.352257890E-1,2.440679073E-1,7.752745152E-1,1.005942631E1
6.373508930E-1,-5.647061467E-1,1.473978758E0,9.853643417E0
6.394759970E-1,-9.523434043E-1,1.426122308E0,9.614361763E0
6.416011020E-1,-1.914258152E-1,1.416550994E0,9.934999466E0
6.437262060E-1,4.785645306E-1,9.906286001E-1,1.056191921E1
6.458513620E-1,3.876372576E-1,5.168496966E-1,1.088255692E1
6.479764660E-1,5.407779217E-1,8.183453679E-1,1.089212894E1
6.501015700E-1,2.249253243E-1,1.349551916E0,1.070548820E1
6.522266740E-1,2.392822690E-2,1.048056364E0,1.017906761E1
6.543517790E-1,1.866401732E-1,1.048056364E0,9.719645500E0
6.564768830E-1,4.785645287E-3,1.651047587E0,9.872786522E0
6.586020390E-1,-9.571290761E-2,1.861616015E0,1.018863869E1
6.607271430E-1,-3.828516230E-2,1.234696507E0,1.049013424E1
6.628522470E-1,2.871387079E-2,1.158126116E0,1.078684425E1
6.649773520E-1,-1.627119333E-1,9.954141974E-1,1.071027374E1
6.671024560E-1,-2.249253243E-1,1.038485050E0,1.050927734E1
6.692275600E-1,-3.349951655E-2,1.201196909E0,1.017906761E1
6.713526640E-1,-9.092725813E-2,9.236295223E-1,9.829715729E0
6.734778200E-1,-3.349951804E-1,1.177268744E0,9.887143135E0
6.756029240E-1,-4.689932466E-1,1.928615093E0,9.997213364E0
6.777280290E-1,-1.531406492E-1,1.306481123E0,1.003071213E1
6.798531330E-1,3.924229145E-1,9.092726111E-1,1.002592659E1
6.819782370E-1,4.115654826E-1,7.992027402E-1,1.033220863E1
6.841033410E-1,1.339980662E-1,3.206382394E-1,1.035613632E1
6.862284450E-1,3.541377485E-1,1.148554921E0,1.042792130E1
6.883536020E-1,-1.914258115E-2,1.071984529E0,1.040399265E1
6.904787060E-1,-3.732803464E-1,6.891329288E-1,1.011685371E1
6.926038100E-1,-1.914258115E-2,1.201196909E0,9.958928108E0
6.947289140E-1,-2.392822690E-2,1.493121386E0,9.978070259E0
6.968540180E-1,-2.344966233E-1,1.263410330E0,1.028913784E1
6.989791220E-1,-2.392822653E-1,1.033699393E0,1.060499001E1
7.011042790E-1,-1.196411327E-1,6.699903607E-1,1.056191921E1
7.032293830E-1,2.775674164E-1,7.417750359E-1,1.036570740E1
7.053544870E-1,5.024927258E-1,1.043270707E0,1.004028416E1
7.074795910E-1,2.727817893E-1,6.221339107E-1,9.920642853E0
7.096046950E-1,2.823530734E-1,5.359922647E-1,9.839286804E0
7.117297990E-1,0.000000000E0,1.148554921E0,9.868000984E0
7.138549040E-1,-6.699903607E-1,1.387837172E0,1.000678444E1
7.159800600E-1,-4.307080805E-2,1.354337573E0,1.045663452E1
7.181051640E-1,6.699903607E-1,6.364908218E-1,1.079641533E1
7.202302680E-1,5.024927258E-1,4.977070987E-1,1.074855900E1
7.223553720E-1,2.727817893E-1,1.095912814E0,1.073420238E1
7.244804770E-1,2.584248483E-1,1.249053478E0,1.060020447E1
7.266055810E-1,-4.785645287E-3,9.619147182E-1,1.024606609E1
7.287307370E-1,-2.201396823E-1,8.470591903E-1,9.542576790E0
7.308558410E-1,-3.158525825E-1,1.426122308E0,9.202795982E0
7.329809450E-1,-1.866401732E-1,1.560120344E0,9.470791817E0
7.351060490E-1,-1.483550072E-1,1.086341500E0,9.987641335E0
7.372311540E-1,-1.674975902E-1,8.422735929E-1,1.045184898E1
7.393562580E-1,-4.067798555E-1,7.704889178E-1,1.068634605E1
7.414813620E-1,-1.722832322E-1,1.115055323E0,1.071027374E1
7.436065180E-1,1.244267747E-1,9.762716293E-1,1.031785107E1
7.457316220E-1,-1.770688742E-1,8.997012973E-1,9.772287369E0
7.478567270E-1,-5.264210105E-1,1.282552958E0,9.810572624E0
7.499818310E-1,-4.067798555E-1,1.852044702E0,1.007856941E1
7.521069350E-1,-3.302095234E-1,1.531406522E0,1.034656525E1
7.542320390E-1,-4.785645381E-2,9.762716293E-1,1.029392338E1
7.563571950E-1,2.201396823E-1,6.412764788E-1,9.973284721E0
7.584822990E-1,1.148554832E-1,2.440679073E-1,9.734002113E0
7.606074040E-1,2.057827413E-1,1.024128079E0,9.662218094E0
7.627325080E-1,-2.297109663E-1,1.373480201E0,9.561718941E0
7.648576120E-1,-3.541377485E-1,1.024128079E0,9.446864128E0
7.669827160E-1,1.435693540E-2,1.115055323E0,9.355937004E0
7.691078720E-1,2.153540403E-1,1.564906001E0,9.327222824E0
7.712329770E-1,6.221338734E-2,1.569691658E0,9.580862045E0
7.733580810E-1,1.579262912E-1,1.172483087E0,9.949356079E0
7.754831850E-1,2.153540403E-1,8.949156404E-1,1.005464077E1
7.776082890E-1,9.092725813E-2,8.901300430E-1,9.963713646E0
7.797333930E-1,2.679961324E-1,9.284151793E-1,9.753145218E0
7.818584970E-1,3.493520916E-1,8.757730722E-1,9.518648148E0
7.839836540E-1,2.057827413E-1,8.039883971E-1,9.241081238E0
7.861087580E-1,-2.536391914E-1,1.272981644E0,9.336793900E0
7.882338620E-1,-8.087740541E-1,1.588834286E0,9.882357597E0
7.903589660E-1,-2.919243574E-1,1.349551916E0,1.019342422E1
7.924840700E-1,1.339980662E-1,7.369893789E-1,1.025563812E1
7.946092270E-1,0.000000000E0,3.397808075E-1,1.031785107E1
7.967342790E-1,-3.349951655E-2,4.833501875E-1,1.016471100E1
7.988594350E-1,4.307080805E-2,9.140582681E-1,9.762716293E0
8.009845390E-1,-3.206382394E-1,8.709874153E-1,9.322437286E0
8.031096430E-1,-7.178468257E-2,8.853443861E-1,9.595218658E0
8.052347470E-1,-1.339980662E-1,1.411765337E0,9.868000984E0
8.073598520E-1,-9.092725813E-2,1.660618901E0,1.007378292E1
8.094849560E-1,-4.307080805E-2,1.009771109E0,1.017428207E1
8.116101120E-1,-6.699903309E-2,8.566305041E-1,9.815358162E0
8.137352160E-1,-2.823530734E-1,9.427721500E-1,9.824930191E0
8.158603200E-1,1.914258115E-2,1.143769264E0,1.015513897E1
8.179854240E-1,4.929214716E-1,1.110269666E0,1.026520920E1
8.201105290E-1,2.105683982E-1,9.762716293E-1,1.013599682E1
8.222356330E-1,-2.440679073E-1,1.215553880E0,9.729216576E0
8.243607890E-1,-1.770688742E-1,2.067398787E0,9.466006279E0
8.264858930E-1,-2.679961324E-1,1.689332843E0,9.394221306E0
8.286109970E-1,3.349951655E-2,1.057627559E0,9.260223389E0
8.307361020E-1,1.531406492E-1,6.364908218E-1,9.523433685E0
8.328612060E-1,5.264209956E-2,2.967100143E-1,9.561718941E0
8.349863100E-1,2.727817893E-1,1.048056364E0,9.552147865E0
8.371114140E-1,4.785645287E-3,1.406979680E0,9.399007797E0
8.392365700E-1,-4.067798555E-1,1.115055323E0,9.585647583E0
8.413616740E-1,-7.178468257E-2,1.258624673E0,9.700503349E0
8.434867790E-1,2.488535494E-1,1.665404558E0,9.604789734E0
8.456118830E-1,-9.571290761E-2,1.507478237E0,9.844072342E0
8.477369870E-1,-1.914258115E-2,1.186840057E0,9.973284721E0
8.498620910E-1,5.742774159E-2,8.709874153E-1,9.968499184E0
8.519871950E-1,-7.657032460E-2,9.236295223E-1,9.786644936E0
8.541123520E-1,5.264209956E-2,1.249053478E0,9.322437286E0
8.562374560E-1,5.024927258E-1,1.057627559E0,9.068798065E0
8.583625600E-1,2.249253243E-1,7.513462901E-1,9.049654961E0
8.604876640E-1,-2.201396823E-1,1.349551916E0,8.973084450E0
8.626127680E-1,-6.269195080E-1,1.631905079E0,9.198010445E0
8.647378720E-1,-3.302095234E-1,1.225125194E0,9.767501831E0
8.668630290E-1,2.632105052E-1,6.269195080E-1,1.001156998E1
8.689881330E-1,6.987041831E-1,5.838487148E-1,1.004506969E1
8.711132370E-1,8.231309652E-1,7.752745152E-1,9.872786522E0
8.732383410E-1,4.881358147E-1,1.282552958E0,9.810572624E0
8.753634450E-1,1.292124242E-1,1.115055323E0,9.499505997E0
8.774885490E-1,3.349951655E-2,1.067198873E0,9.054440498E0
8.796137060E-1,-1.483550072E-1,1.426122308E0,9.064012527E0
8.817388100E-1,3.828516230E-2,1.507478237E0,9.317651749E0
8.838639140E-1,9.571290575E-3,1.158126116E0,9.561718941E0
8.859890180E-1,2.871387079E-2,9.284151793E-1,9.475577354E0
8.881141220E-1,-2.871387079E-2,8.901300430E-1,9.466006279E0
8.902392270E-1,1.722832322E-1,1.038485050E0,9.628718376E0
8.923643310E-1,4.307080805E-1,1.033699393E0,9.848857880E0
8.944894870E-1,3.206382394E-1,5.838487148E-1,9.671789169E0
8.966145910E-1,7.178468257E-2,9.427721500E-1,9.169296265E0
8.987396950E-1,-3.924229145E-1,1.880758643E0,8.901300430E0
9.008647990E-1,-3.828516304E-1,1.684547186E0,9.193224907E0
9.029899040E-1,-1.244267747E-1,8.853443861E-1,9.480362892E0
9.051150080E-1,2.392822653E-1,6.125625968E-1,9.422935486E0
9.072401120E-1,2.632105052E-1,2.440679073E-1,9.279366493E0
9.093652680E-1,3.445664644E-1,6.364908218E-1,9.427721024E0
9.114903720E-1,-7.178468257E-2,1.081555843E0,9.561718941E0
9.136154770E-1,-2.823530734E-1,9.332008362E-1,9.365508080E0
9.157405810E-1,-1.292124242E-1,1.225125194E0,9.064012527E0
9.178656850E-1,9.571290761E-2,1.741974831E0,8.805587769E0
9.199908410E-1,-7.657032460E-2,1.847259045E0,9.140582085E0
9.221159450E-1,2.775674164E-1,1.019342422E0,9.805787086E0
9.242410490E-1,7.178468257E-2,4.737788737E-1,9.973284721E0
9.263661540E-1,-3.828516230E-2,8.087740541E-1,1.010728264E1
9.284912580E-1,2.727817893E-1,8.279166222E-1,9.987641335E0
9.306163620E-1,3.732803464E-1,7.226324677E-1,9.671789169E0
9.327414660E-1,3.924229145E-1,5.599204898E-1,9.169296265E0
9.348666220E-1,2.919243574E-1,1.076770186E0,8.767302513E0
9.369917270E-1,-3.589234054E-1,1.603191137E0,8.695517540E0
9.391168310E-1,-2.297109663E-1,1.962114573E0,9.107083321E0
9.412419350E-1,6.221338734E-2,9.954141974E-1,9.858428955E0
9.433670390E-1,5.168496966E-1,4.546363056E-1,1.041835022E1
9.454921430E-1,3.684946895E-1,9.379864931E-1,1.070070267E1
9.476172470E-1,4.067798555E-1,1.162911773E0,1.047099209E1
9.497424040E-1,1.722832322E-1,6.939185858E-1,1.004985523E1
9.518675080E-1,-2.105683982E-1,6.412764788E-1,9.547362328E0
9.539926120E-1,-2.967100143E-1,1.057627559E0,8.867800713E0
9.561177160E-1,-2.536391914E-1,1.655833244E0,8.867800713E0
9.582428200E-1,-7.178468257E-2,1.057627559E0,9.346364975E0
9.603679240E-1,-1.674975902E-1,6.221339107E-1,9.887143135E0
9.624930810E-1,-7.657032460E-2,8.039883971E-1,1.048534870E1
9.646181850E-1,1.292124242E-1,9.427721500E-1,1.084905815E1
9.667432890E-1,2.727817893E-1,9.236295223E-1,1.032742214E1
9.688683410E-1,5.599204898E-1,9.714859724E-1,9.600004196E0
9.709934970E-1,1.196411327E-1,7.800601721E-1,9.623932838E0
9.731186020E-1,-9.092725813E-2,1.311266780E0,9.920642853E0
9.752437580E-1,-4.211367965E-1,1.502692580E0,1.013121128E1
9.773688620E-1,-3.254238665E-1,1.004985452E0,1.021256733E1
9.794939660E-1,5.072783828E-1,6.652047038E-1,1.021256733E1
9.816190700E-1,4.163511395E-1,6.077769399E-1,1.027956581E1
9.837441740E-1,3.158525825E-1,1.004985452E0,1.050449181E1
9.858692790E-1,1.196411327E-1,1.186840057E0,1.046620655E1
9.879944350E-1,-3.493520916E-1,1.081555843E0,1.033220863E1
9.901195390E-1,-6.364908218E-1,1.048056364E0,9.772287369E0
9.922446430E-1,-3.684946895E-1,1.402194023E0,9.489934921E0
9.943697470E-1,-2.536391914E-1,1.201196909E0,9.958928108E0
9.964948520E-1,-3.828516230E-2,6.987041831E-1,1.060020447E1
9.986199560E-1,6.699903309E-2,6.125625968E-1,1.058584690E1
1.000745060E0,-2.009970993E-1,9.475577474E-1,1.055234814E1
1.002870164E0,-2.201396823E-1,1.320838094E0,1.047099209E1
1.004995320E0,2.727817893E-1,1.086341500E0,1.018863869E1
1.007120424E0,2.584248483E-1,6.843472719E-1,9.657432556E0
1.009245529E0,-1.531406492E-1,1.124626637E0,9.456435204E0
1.011370633E0,-5.982056856E-1,1.737189293E0,9.346364975E0
1.013495737E0,-3.780659735E-1,1.756331801E0,9.796216011E0
1.015620893E0,2.105683982E-1,9.044869542E-1,1.054756260E1
1.017745997E0,8.853443861E-1,5.407779217E-1,1.088255692E1
1.019871102E0,7.226324677E-1,6.029912829E-1,1.089691448E1
1.021996206E0,3.684946895E-1,1.019342422E0,1.090648556E1
1.024121310E0,1.722832322E-1,8.422735929E-1,1.038485050E1
1.026246414E0,-2.871387079E-2,9.379864931E-1,9.585647583E0
1.028371518E0,-4.689932466E-1,1.732403636E0,8.743373871E0
1.030496622E0,-3.445664644E-1,1.718046665E0,8.532805443E0
1.032621779E0,-1.292124242E-1,8.422735929E-1,8.910871506E0
1.034746883E0,-7.657032460E-2,8.614161611E-1,9.537791252E0
1.036871987E0,-4.067798555E-1,9.044869542E-1,1.015035343E1
1.038997091E0,-3.924229145E-1,9.667003751E-1,1.061456108E1
1.041122195E0,1.435693540E-2,1.057627559E0,1.064327526E1
1.043247299E0,2.823530734E-1,9.236295223E-1,1.014556789E1
1.045372404E0,-1.004985496E-1,8.279166222E-1,9.992427826E0
1.047497560E0,-4.689932466E-1,1.622333765E0,9.643074989E0
1.049622664E0,-8.614161611E-1,1.713261008E0,9.437292099E0
1.051747768E0,-6.269195080E-1,1.024128079E0,9.714859962E0
1.053872872E0,-1.914258115E-2,5.024927258E-1,1.010728264E1
1.055997924E0,3.493520916E-1,2.871387079E-2,1.032742214E1
1.058123133E0,5.216353536E-1,4.929214716E-1,1.044227791E1
1.060248237E0,2.632105052E-1,1.239482164E0,1.030349445E1
1.062373341E0,-5.407779217E-1,1.339980721E0,9.925428391E0
1.064498445E0,-8.470591903E-1,1.483550072E0,9.202795982E0
1.066623549E0,-1.722832322E-1,2.187039852E0,8.685946465E0
1.068748654E0,-1.674975902E-1,2.005185366E0,9.097511292E0
1.070873758E0,1.196411327E-1,1.019342422E0,9.643074989E0
1.072998914E0,5.551348329E-1,5.072783828E-1,1.011685371E1
1.075124018E0,1.483550072E-1,9.858429432E-1,1.042313576E1
1.077249122E0,3.924229145E-1,1.430907965E0,1.080120182E1
1.079374227E0,2.632105052E-1,6.652047038E-1,1.074855900E1
1.081499331E0,3.493520916E-1,6.412764788E-1,1.010728264E1
1.083624435E0,1.435693540E-2,1.172483087E0,9.418149948E0
1.085749487E0,-2.488535494E-1,1.584048629E0,9.174081802E0
1.087874695E0,-1.914258115E-2,1.335195065E0,9.442078590E0
1.089999799E0,2.488535494E-1,8.135597110E-1,9.987641335E0
1.092124904E0,7.465606928E-1,4.977070987E-1,1.072941685E1
1.094250008E0,7.226324677E-1,5.216353536E-1,1.135633659E1
1.096375112E0,-4.785645287E-3,9.332008362E-1,1.110748291E1
1.098500216E0,-2.344966233E-1,6.747759581E-1,1.037049294E1
1.100625372E0,-1.387837082E-1,5.264210105E-1,9.403793335E0
1.102750477E0,-3.445664644E-1,9.140582681E-1,8.910871506E0
1.104875581E0,-4.785645287E-3,1.694118381E0,8.886942863E0
1.107000633E0,3.397808075E-1,1.158126116E0,9.710074425E0
1.109125789E0,3.302095234E-1,5.312066078E-1,1.076770210E1
1.111250893E0,-3.589234054E-1,8.470591903E-1,1.141376400E1
1.113376049E0,-4.259224236E-1,1.426122308E0,1.155254745E1
1.115501154E0,5.264209956E-2,1.392622828E0,1.139462185E1
1.117626258E0,2.919243574E-1,8.327022791E-1,1.079641533E1
1.119751362E0,2.105683982E-1,7.800601721E-1,9.824930191E0
1.121876466E0,-1.435693540E-2,1.411765337E0,9.365508080E0
1.124001570E0,-4.977070987E-1,1.459621787E0,9.705288887E0
1.126126674E0,-5.216353536E-1,9.379864931E-1,1.026999474E1
1.128251779E0,-3.062812984E-1,4.594219327E-1,1.049013424E1
1.130376935E0,-3.493520916E-1,2.679961324E-1,1.053799057E1
1.132502039E0,1.531406492E-1,7.848458290E-1,1.050927734E1
1.134627143E0,4.115654826E-1,8.135597110E-1,1.053320503E1
1.136752247E0,3.349951655E-2,8.183453679E-1,1.018385315E1
1.138877352E0,-3.732803464E-1,1.406979680E0,9.791430473E0
1.141002456E0,-3.302095234E-1,2.033899307E0,9.815358162E0
1.143127612E0,-1.914258152E-1,1.579262972E0,1.019342422E1
1.145252716E0,-3.349951655E-2,9.906286001E-1,1.068156052E1
1.147377820E0,-1.962114573E-1,9.475577474E-1,1.076291656E1
1.149502924E0,-2.679961324E-1,1.234696507E0,1.087777138E1
1.151628029E0,-6.699903309E-2,1.244267821E0,1.093041420E1
1.153753133E0,1.387837082E-1,7.896314859E-1,1.041356373E1
1.155878289E0,5.599204898E-1,5.120640397E-1,9.504291534E0
1.158003393E0,3.972085714E-1,8.279166222E-1,9.068798065E0
1.160128497E0,-1.962114573E-1,1.124626637E0,9.188439369E0
1.162253602E0,5.742774159E-2,1.397408366E0,9.585647583E0
1.164378706E0,5.359922647E-1,9.475577474E-1,1.020778179E1
1.166503810E0,4.833501875E-1,3.541377485E-1,1.064806080E1
1.168628914E0,7.034898400E-1,4.642075896E-1,1.070070267E1
1.170754070E0,1.129412293E0,8.662018180E-1,1.081077290E1
1.172879174E0,7.034898400E-1,6.125625968E-1,1.068156052E1
1.175004279E0,4.785645287E-3,6.556333899E-1,9.863214493E0
1.177129383E0,-6.221339107E-1,1.378265858E0,9.217152596E0
1.179254487E0,-4.259224236E-1,1.674975872E0,9.274580956E0
1.181379591E0,1.770688742E-1,6.412764788E-1,9.355937004E0
1.183504695E0,5.742774159E-2,2.009970993E-1,9.499505997E0
1.185629852E0,-3.972085714E-1,6.173482537E-1,9.992427826E0
1.187754956E0,-5.599204898E-1,1.076770186E0,1.070548820E1
1.189880060E0,-1.579262912E-1,1.158126116E0,1.116012478E1
1.192005164E0,5.742774159E-2,6.269195080E-1,1.091127110E1
1.194130268E0,1.674975902E-1,5.312066078E-1,1.015992451E1
1.196255372E0,1.004985496E-1,1.263410330E0,9.576076508E0
1.198380529E0,-2.871387079E-2,1.526620865E0,9.336793900E0
1.200505633E0,-3.924229145E-1,1.143769264E0,9.432506561E0
1.202630737E0,-1.722832322E-1,1.048056364E0,9.820143700E0
1.204755841E0,4.785645381E-2,3.780659735E-1,1.058106136E1
1.206880945E0,5.072783828E-1,6.460621357E-1,1.079162979E1
1.209006102E0,6.173482537E-1,1.473978758E0,1.051884842E1
1.211131206E0,-7.178468257E-2,1.028913736E0,1.040877819E1
1.213256310E0,-1.627119333E-1,1.019342422E0,1.006421185E1
1.215381414E0,-4.881358147E-1,1.727617979E0,9.379864693E0
1.217506518E0,-3.541377485E-1,1.986042738E0,9.226723671E0
1.219631622E0,7.657032460E-2,1.258624673E0,9.671789169E0
1.221756727E0,1.914258152E-1,8.662018180E-1,9.853643417E0
1.223881831E0,-3.014956415E-1,1.138983607E0,1.007856941E1
1.226006987E0,8.135596663E-2,1.440479279E0,1.060020447E1
1.228132091E0,1.387837082E-1,9.092726111E-1,1.071506023E1
1.230257195E0,2.632105052E-1,3.589234054E-1,1.015992451E1
1.232382299E0,2.009970993E-1,7.704889178E-1,9.355937004E0
1.234507404E0,9.571290575E-3,1.473978758E0,9.044869423E0
1.236632508E0,-3.014956415E-1,1.756331801E0,9.250652313E0
1.238757612E0,-7.657032460E-2,1.024128079E0,1.001635551E1
1.240882768E0,3.972085714E-1,4.115654826E-1,1.069591713E1
1.243007872E0,4.211367965E-1,5.599204898E-1,1.127019501E1
1.245132977E0,3.972085714E-1,9.954141974E-1,1.147597694E1
1.247258081E0,4.785645381E-2,8.279166222E-1,1.111705399E1
1.249383185E0,-2.775674164E-1,5.312066078E-1,1.021256733E1
1.251508289E0,-6.843472719E-1,9.810572863E-1,9.131011009E0
1.253633445E0,-6.508477330E-1,1.607976794E0,8.489734650E0
1.255758549E0,-1.148554832E-1,1.095912814E0,8.772088051E0
1.257883654E0,3.637090325E-1,5.982056856E-1,9.547362328E0
1.260008758E0,4.307080805E-2,5.551348329E-1,1.029392338E1
1.262133862E0,-4.881358147E-1,8.470591903E-1,1.076291656E1
1.264258966E0,-4.067798555E-1,1.105484009E0,1.119841003E1
1.266384122E0,-4.307080805E-2,8.231309652E-1,1.114576817E1
1.268509227E0,4.785645287E-3,6.173482537E-1,1.032742214E1
1.270634331E0,-2.679961324E-1,1.244267821E0,9.772287369E0
1.272759435E0,-5.359922647E-1,1.507478237E0,9.657432556E0
1.274884539E0,-4.211367965E-1,1.024128079E0,9.638289452E0
1.277009643E0,-2.967100143E-1,5.024927258E-1,9.748359680E0
1.279134747E0,-2.919243574E-1,2.488535494E-1,1.015992451E1
1.281259852E0,-4.785645287E-3,7.082754970E-1,1.069113159E1
1.283385008E0,5.168496966E-1,1.138983607E0,1.074855900E1
1.285510112E0,8.614161611E-2,9.284151793E-1,1.044706345E1
1.287635268E0,-3.589234054E-1,1.110269666E0,1.002114105E1
1.289760320E0,-6.364908218E-1,1.794616938E0,9.494720459E0
1.291885424E0,-3.158525825E-1,1.641476393E0,9.102297783E0
1.294010581E0,6.221338734E-2,1.292124271E0,9.107083321E0
1.296135633E0,-7.657032460E-2,1.024128079E0,9.619147301E0
1.298260789E0,-2.009970993E-1,1.124626637E0,1.012164021E1
1.300385893E0,9.571290575E-3,1.316052437E0,1.062413216E1
1.302510997E0,-2.201396823E-1,9.140582681E-1,1.094955635E1
1.304636102E0,1.148554832E-1,8.183453679E-1,1.033699417E1
1.306761206E0,2.871387079E-2,9.619147182E-1,9.576076508E0
1.308886310E0,-2.871387303E-1,1.454836130E0,9.044869423E0
1.311011466E0,-3.349951804E-1,1.775474429E0,8.973084450E0
1.313136570E0,-2.153540403E-1,1.014556766E0,9.303294182E0
1.315261674E0,-1.483550072E-1,5.168496966E-1,9.796216011E0
1.317386779E0,1.435693651E-1,7.274180651E-1,1.049970531E1
1.319511883E0,5.647061467E-1,9.523434043E-1,1.091605663E1
1.321636987E0,3.828516304E-1,7.226324677E-1,1.066720295E1
1.323762143E0,-1.722832322E-1,6.939185858E-1,9.748359680E0
1.325887247E0,-4.689932466E-1,1.148554921E0,8.949156761E0
1.328012352E0,-5.264210105E-1,1.526620865E0,8.437092781E0
1.330137456E0,-8.614161611E-2,1.134197950E0,8.365307808E0
1.332262560E0,1.292124242E-1,6.747759581E-1,8.729017258E0
1.334387664E0,1.674975902E-1,5.407779217E-1,9.714859962E0
1.336512768E0,-6.699903309E-2,5.982056856E-1,1.055234814E1
1.338637924E0,2.392822653E-1,1.172483087E0,1.103569794E1
1.340763029E0,4.307080805E-1,9.667003751E-1,1.129890823E1
1.342888133E0,4.594219327E-1,3.302095234E-1,1.109312534E1
1.345013237E0,1.244267747E-1,9.427721500E-1,1.017906761E1
1.347138341E0,-3.780659735E-1,1.598405480E0,9.303294182E0
1.349263445E0,-8.374879360E-1,1.344766378E0,8.934800148E0
1.351388549E0,-3.972085714E-1,8.422735929E-1,9.183652878E0
1.353513706E0,-2.536391914E-1,2.392822653E-1,9.915857315E0
1.355638810E0,2.153540403E-1,4.929214716E-1,1.029870892E1
1.357763914E0,2.919243574E-1,8.949156404E-1,1.058584690E1
1.359889018E0,7.178468257E-2,5.886343718E-1,1.071506023E1
1.362014122E0,-5.694918036E-1,6.317051649E-1,1.013599682E1
1.364139279E0,-4.115654826E-1,1.627119422E0,9.384650230E0
1.366264383E0,-6.699903607E-1,1.478764415E0,9.346364975E0
1.368389487E0,1.244267747E-1,9.954141974E-1,9.695717812E0
1.370514591E0,5.264209956E-2,7.896314859E-1,9.973284721E0
1.372639695E0,-2.584248483E-1,1.292124271E0,1.032742214E1
1.374764799E0,-1.627119333E-1,1.521835208E0,1.075334454E1
1.376889904E0,-2.871387079E-2,1.124626637E0,1.080120182E1
1.379015060E0,-7.657032460E-2,5.264210105E-1,1.005942631E1
1.381140164E0,3.110669553E-1,7.657032609E-1,9.293723106E0
1.383265268E0,-1.004985496E-1,1.067198873E0,8.791230202E0
1.385390372E0,-7.178468257E-2,1.239482164E0,8.767302513E0
1.387515477E0,-1.292124242E-1,7.226324677E-1,9.365508080E0
1.389640581E0,1.914258115E-2,5.982056856E-1,1.002592659E1
1.391765737E0,2.201396823E-1,8.087740541E-1,1.056191921E1
1.393890841E0,4.450650215E-1,9.092726111E-1,1.079162979E1
1.396015945E0,3.158525825E-1,9.954141974E-1,1.045663452E1
1.398141049E0,-7.178468257E-2,8.231309652E-1,9.681360245E0
1.400266154E0,-5.790630579E-1,1.100698471E0,8.925228119E0
1.402391258E0,-6.269195080E-1,1.646261930E0,8.757730484E0
1.404516362E0,-3.397808075E-1,1.464407444E0,8.839086533E0
1.406641466E0,8.614161611E-2,7.992027402E-1,9.413364410E0
1.408766622E0,-1.627119333E-1,5.120640397E-1,1.027478027E1
1.410891727E0,-1.148554832E-1,1.134197950E0,1.061456108E1
1.413016831E0,1.914258115E-2,1.598405480E0,1.076291656E1
1.415141935E0,-2.344966233E-1,9.762716293E-1,1.068156052E1
1.417267039E0,1.435693651E-1,3.972085714E-1,1.004985523E1
1.419392143E0,-1.052841991E-1,9.858429432E-1,9.154939651E0
1.421517299E0,-1.148554832E-1,1.584048629E0,8.815158844E0
1.423642404E0,-6.508477330E-1,1.110269666E0,8.973084450E0
1.425767508E0,-2.775674164E-1,8.757730722E-1,9.485149384E0
1.427892612E0,-1.196411327E-1,4.785645306E-1,1.016949654E1
1.430017716E0,3.349951655E-2,6.077769399E-1,1.042313576E1
1.432142820E0,1.962114573E-1,1.196411371E0,1.022692394E1
1.434267977E0,1.866401732E-1,1.205982566E0,9.968499184E0
1.436393081E0,-9.571290761E-2,9.236295223E-1,9.566504478E0
1.438518185E0,-7.704889178E-1,1.249053478E0,9.150154114E0
1.440643289E0,-6.029912829E-1,1.713261008E0,9.049654961E0
1.442768393E0,1.435693540E-2,1.186840057E0,9.327222824E0
1.444893497E0,1.196411327E-1,5.024927258E-1,9.710074425E0
1.447018602E0,1.435693540E-2,1.086341500E0,9.901499748E0
1.449143758E0,2.153540403E-1,1.593619823E0,1.035613632E1
1.451268862E0,4.737788737E-1,1.076770186E0,1.066720295E1
1.453393966E0,4.881358147E-1,2.679961324E-1,1.047099209E1
1.455519070E0,8.614161611E-1,7.896314859E-1,9.719645500E0
1.457644174E0,3.828516304E-1,1.234696507E0,9.322437286E0
1.459769279E0,-3.828516230E-2,1.081555843E0,9.451649666E0
1.461894383E0,5.264209956E-2,1.182054400E0,9.753145218E0
1.464019539E0,-1.483550072E-1,4.450650215E-1,1.040399265E1
1.466144643E0,-5.742774159E-2,4.402793646E-1,1.070548820E1
1.468269747E0,2.727817893E-1,8.901300430E-1,1.071027374E1
1.470394852E0,7.178468257E-2,6.843472719E-1,1.038485050E1
1.472519956E0,-4.881358147E-1,5.168496966E-1,9.633503914E0
1.474645060E0,-8.709874153E-1,1.071984529E0,8.748159409E0
1.476770216E0,-8.709874153E-1,1.464407444E0,8.374878883E0
1.478895320E0,-2.249253243E-1,1.009771109E0,8.571090698E0
1.481020424E0,2.679961324E-1,5.647061467E-1,9.202795982E0
1.483145529E0,3.397808075E-1,4.450650215E-1,1.015035343E1
1.485270633E0,-1.483550072E-1,8.374879360E-1,1.090648556E1
1.487395789E0,-1.196411327E-1,1.220339537E0,1.134676456E1
1.489520841E0,1.004985496E-1,6.604190469E-1,1.127498055E1
1.491645997E0,4.642075896E-1,2.009970993E-1,1.047099209E1
1.493771102E0,5.407779217E-1,7.226324677E-1,9.509077072E0
1.495896206E0,3.924229145E-1,1.359123230E0,9.092725754E0
1.498021310E0,-1.579262912E-1,8.662018180E-1,9.585647583E0
1.500146414E0,-3.876372576E-1,6.077769399E-1,1.016471100E1
1.502271518E0,-1.292124242E-1,6.795616150E-1,1.042792130E1
1.504396674E0,1.052841991E-1,6.987041831E-1,1.026520920E1
1.506521779E0,3.302095234E-1,7.752745152E-1,1.023649502E1
1.508646883E0,-2.727817893E-1,8.949156404E-1,1.011206818E1
1.510771987E0,-5.407779217E-1,1.086341500E0,9.757930756E0
1.512897091E0,-8.087740541E-1,1.574477315E0,9.413364410E0
1.515022195E0,-8.566305041E-1,1.689332843E0,9.202795982E0
1.517147352E0,-5.264210105E-1,1.631905079E0,9.011369705E0
1.519272456E0,-2.344966233E-1,9.619147182E-1,9.308079720E0
1.521397508E0,1.674975902E-1,1.186840057E0,9.667003632E0
1.523522664E0,9.092725813E-2,2.220539331E0,1.004985523E1
1.525647768E0,-4.402793646E-1,2.163111687E0,1.060499001E1
1.527772872E0,3.637090325E-1,1.560120344E0,1.062413216E1
1.529897977E0,9.714859724E-1,1.282552958E0,9.963713646E0
1.532023133E0,5.216353536E-1,1.804188251E0,9.370293617E0
1.534148237E0,-5.264209956E-2,2.225325108E0,9.322437286E0
1.536273341E0,2.679961324E-1,1.942971945E0,9.681360245E0
1.538398445E0,2.392822690E-2,1.287338614E0,1.011685371E1
1.540523549E0,-3.349951804E-1,1.450050473E0,1.026042366E1
1.542648654E0,1.148554832E-1,1.741974831E0,1.022692394E1
1.544773758E0,9.571290761E-2,1.320838094E0,1.011685371E1
1.546898914E0,-3.349951804E-1,1.239482164E0,9.480362892E0
1.549024018E0,-1.339980721E0,1.459621787E0,8.690732002E0
1.551149122E0,-1.627119422E0,2.081755638E0,8.346165657E0
1.553274227E0,-9.954141974E-1,2.139183521E0,8.293522835E0
1.555399331E0,-3.732803464E-1,1.196411371E0,8.465806961E0
1.557524383E0,-1.818545163E-1,8.566305041E-1,8.977870941E0
1.559649591E0,-8.614161611E-2,1.478764415E0,9.576076508E0
1.561774695E0,2.153540403E-1,1.828116536E0,1.024606609E1
1.563899799E0,2.297109663E-1,1.430907965E0,1.072941685E1
1.566024904E0,5.407779217E-1,4.881358147E-1,1.097348499E1
1.568150008E0,2.297109663E-1,4.785645306E-1,1.008814049E1
1.570275112E0,3.302095234E-1,1.335195065E0,9.499505997E0
1.572400268E0,-1.579262912E-1,1.115055323E0,9.303294182E0
1.574525372E0,2.009970993E-1,5.742774606E-1,9.059226990E0
1.576650477E0,1.962114573E-1,-2.871387079E-2,8.891729355E0
1.578775581E0,7.417750359E-1,3.972085714E-1,8.796015739E0
1.580900685E0,7.848458290E-1,6.891329288E-1,9.169296265E0
1.583025789E0,2.775674164E-1,3.732803464E-1,9.968499184E0
1.585150893E0,-4.594219327E-1,1.435693540E-2,1.035613632E1
1.587276049E0,-7.944171429E-1,6.412764788E-1,1.015513897E1
1.589401154E0,-1.473978758E0,1.225125194E0,9.710074425E0
1.591526258E0,-8.614161611E-1,9.906286001E-1,9.341579437E0
1.593651362E0,1.148554832E-1,1.531406492E-1,9.198010445E0
1.595776466E0,1.435693540E-2,-4.785645287E-3,9.255437851E0
1.597901570E0,3.828516230E-2,1.119840980E0,9.533005714E0
1.600026727E0,-4.785645381E-2,1.292124271E0,1.037527943E1
1.602151831E0,8.135596663E-2,3.637090325E-1,1.137547874E1
1.604276935E0,6.173482537E-1,3.541377485E-1,1.115055370E1
1.606402039E0,4.977070987E-1,8.614161611E-1,1.046620655E1
1.608527143E0,1.435693651E-1,9.571290612E-1,1.017906761E1
1.610652247E0,3.684946895E-1,9.332008362E-1,1.014556789E1
1.612777352E0,1.914258152E-1,5.694918036E-1,1.025085258E1
1.614902508E0,4.402793646E-1,4.354937077E-1,1.066241741E1
1.617027612E0,5.216353536E-1,9.427721500E-1,1.101177025E1
1.619152716E0,3.828516304E-1,1.134197950E0,1.138983536E1
1.621277820E0,3.349951804E-1,8.231309652E-1,1.105005455E1
1.623402924E0,-1.292124242E-1,1.105484009E0,1.010728264E1
1.625528029E0,-7.944171429E-1,1.770688772E0,9.389435768E0
1.627653133E0,-8.231309652E-1,1.847259045E0,9.064012527E0
1.629778289E0,-2.775674164E-1,1.249053478E0,9.217152596E0
1.631903393E0,-1.483550072E-1,9.092726111E-1,9.714859962E0
1.634028497E0,-2.967100143E-1,1.387837172E0,1.003071213E1
1.636153602E0,-2.967100143E-1,1.933400750E0,1.021735287E1
1.638278706E0,-6.269195080E-1,1.478764415E0,1.045184898E1
1.640403810E0,-9.571290761E-2,1.009771109E0,9.896714211E0
1.642528966E0,2.584248483E-1,1.272981644E0,8.944371223E0
1.644654070E0,-6.221338734E-2,1.923829436E0,8.437092781E0
1.646779174E0,-2.536391914E-1,1.804188251E0,8.752944946E0
1.648904279E0,2.727817893E-1,1.392622828E0,9.408578873E0
1.651029383E0,2.009970993E-1,1.009771109E0,1.003071213E1
1.653154487E0,9.092725813E-2,1.124626637E0,1.031785107E1
1.655279591E0,6.556333899E-1,1.459621787E0,1.084427261E1
1.657404747E0,5.982056856E-1,9.427721500E-1,1.110269737E1
1.659529852E0,-7.657032460E-2,5.503492355E-1,1.050449181E1
1.661654956E0,-7.082754970E-1,1.483550072E0,9.576076508E0
1.663780060E0,-1.215553880E0,1.962114573E0,9.092725754E0
1.665905164E0,-9.667003751E-1,1.564906001E0,8.829515457E0
1.668030268E0,-4.498506486E-1,8.135597110E-1,8.714659691E0
1.670155424E0,-6.652047038E-1,6.699903607E-1,8.934800148E0
1.672280529E0,-1.062413216E0,1.282552958E0,9.159725189E0
1.674405633E0,-9.667003751E-1,1.593619823E0,9.643074989E0
1.676530737E0,-7.226324677E-1,8.853443861E-1,1.000678444E1
1.678655841E0,-4.259224236E-1,8.279166222E-1,9.633503914E0
1.680780945E0,-1.579262912E-1,1.402194023E0,9.533005714E0
1.682906049E0,-6.221338734E-2,1.564906001E0,9.868000984E0
1.685031206E0,4.163511395E-1,1.335195065E0,1.019342422E1
1.687156310E0,4.689932466E-1,7.944171429E-1,1.037527943E1
1.689281414E0,1.770688742E-1,9.140582681E-1,1.059063339E1
1.691406518E0,2.201396823E-1,1.311266780E0,1.090170002E1
1.693531622E0,3.972085714E-1,1.129412293E0,1.123190975E1
1.695656727E0,3.110669553E-1,4.307080805E-1,1.088734341E1
1.697781831E0,-9.571290575E-3,3.206382394E-1,9.561718941E0
1.699906987E0,-7.561319470E-1,8.709874153E-1,8.623732567E0
1.702032091E0,-2.488535494E-1,1.138983607E0,8.245666504E0
1.704157195E0,2.440679073E-1,5.694918036E-1,8.341380119E0
1.706282299E0,2.009970993E-1,9.571290761E-2,8.920442581E0
1.708407404E0,-3.684946895E-1,5.599204898E-1,9.686145782E0
1.710532508E0,-2.919243574E-1,1.258624673E0,1.064327526E1
1.712657664E0,-9.571290761E-2,1.129412293E0,1.127019501E1
1.714782768E0,9.092725813E-2,4.307080805E-1,1.094955635E1
1.716907872E0,-4.785645381E-2,4.402793646E-1,1.006899738E1
1.719032977E0,3.637090325E-1,1.268195987E0,9.590433121E0
1.721158081E0,3.062812984E-1,1.110269666E0,9.427721024E0
1.723283185E0,5.742774159E-2,6.843472719E-1,9.614361763E0
1.725408341E0,8.135596663E-2,3.062812984E-1,1.018385315E1
1.727533445E0,-6.699903309E-2,2.823530734E-1,1.052363396E1
1.729658549E0,1.627119333E-1,6.317051649E-1,1.057627583E1
1.731783654E0,2.440679073E-1,5.838487148E-1,1.041356373E1
1.733908758E0,2.679961324E-1,2.967100143E-1,9.781859398E0
1.736033862E0,-3.110669553E-1,6.604190469E-1,8.939585686E0
1.738158966E0,-7.226324677E-1,1.459621787E0,8.623732567E0
1.740284122E0,-4.546363056E-1,1.426122308E0,8.786444664E0
1.742409227E0,4.307080805E-2,8.566305041E-1,9.087940216E0
1.744534331E0,9.571290575E-3,7.082754970E-1,9.834501266E0
1.746659435E0,-1.100698411E-1,1.282552958E0,1.051406288E1
1.748784539E0,-2.344966233E-1,1.445264935E0,1.087777138E1
1.750909643E0,-2.488535494E-1,1.033699393E0,1.088734341E1
1.753034747E0,1.292124242E-1,1.210768223E0,1.031785107E1
1.755159904E0,-1.339980662E-1,1.416550994E0,9.628718376E0
1.757285008E0,-7.752745152E-1,1.603191137E0,9.303294182E0
1.759410112E0,-4.067798555E-1,2.091326952E0,9.394221306E0
1.761535216E0,-6.795616150E-1,1.292124271E0,9.997213364E0
1.763660320E0,-6.317051649E-1,8.327022791E-1,1.038485050E1
1.765785424E0,-2.105683982E-1,1.162911773E0,1.062413216E1
1.767910581E0,7.657032460E-2,1.143769264E0,1.094477081E1
1.770035685E0,3.206382394E-1,1.071984529E0,1.059541893E1
1.772160789E0,1.674975902E-1,1.234696507E0,9.801001549E0
1.774285893E0,-7.704889178E-1,1.545763373E0,9.523433685E0
1.776410997E0,-1.086341500E0,1.761117458E0,9.456435204E0
1.778536102E0,-2.632105052E-1,1.430907965E0,9.284152031E0
1.780661310E0,1.674975902E-1,7.896314859E-1,9.705288887E0
1.782786362E0,1.196411327E-1,8.805587292E-1,1.050927734E1
1.784911466E0,-1.292124242E-1,1.545763373E0,1.097348499E1
1.787036570E0,-5.264209956E-2,1.406979680E0,1.122712421E1
1.789161674E0,-9.571290761E-2,9.092726111E-1,1.133719349E1
1.791286779E0,-9.571290761E-2,8.757730722E-1,1.060977554E1
1.793411883E0,-1.722832322E-1,1.378265858E0,9.657432556E0
1.795537039E0,1.196411327E-1,1.464407444E0,8.992227554E0
1.797662143E0,1.674975902E-1,7.800601721E-1,8.556734085E0
1.799787247E0,1.483550072E-1,2.584248483E-1,8.882157326E0
1.801912352E0,1.435693651E-1,2.584248483E-1,9.671789169E0
1.804037456E0,5.024927258E-1,7.082754970E-1,1.021735287E1
1.806162560E0,5.886343718E-1,5.694918036E-1,1.041835022E1
1.808287716E0,2.823530734E-1,2.344966233E-1,1.022692394E1
1.810412820E0,-5.982056856E-1,4.019941986E-1,9.580862045E0
1.812537924E0,-7.082754970E-1,1.445264935E0,8.915657043E0
1.814663029E0,-7.178468257E-2,1.660618901E0,8.561519623E0
1.816788133E0,5.982056856E-1,4.163511395E-1,8.748159409E0
1.818913237E0,7.369893789E-1,1.866401732E-1,8.953942299E0
1.821038341E0,6.747759581E-1,1.000199914E0,9.748359680E0
1.823163497E0,5.072783828E-1,1.182054400E0,1.077727318E1
1.825288602E0,1.818545163E-1,7.513462901E-1,1.118883896E1
1.827413706E0,1.100698411E-1,3.876372576E-1,1.085862923E1
1.829538810E0,1.818545163E-1,7.274180651E-1,9.992427826E0
1.831663914E0,-1.914258115E-2,7.609176040E-1,9.662218094E0
1.833789018E0,1.100698411E-1,9.714859724E-1,9.274580956E0
1.835914174E0,2.632105052E-1,8.518448472E-1,9.001798630E0
1.838039279E0,-4.881358147E-1,3.445664644E-1,9.710074425E0
1.840164383E0,-2.871387079E-2,7.561319470E-1,1.049491978E1
1.842289487E0,1.148554832E-1,9.810572863E-1,1.106919765E1
1.844414591E0,-3.062812984E-1,5.359922647E-1,1.123669529E1
1.846539695E0,-7.704889178E-1,6.029912829E-1,1.056670475E1
1.848664799E0,-1.368694544E0,1.363908887E0,9.643074989E0
1.850789956E0,-1.038485050E0,1.732403636E0,9.346364975E0
1.852915060E0,1.004985496E-1,1.215553880E0,9.288937569E0
1.855040164E0,3.828516304E-1,8.757730722E-1,9.767501831E0
1.857165268E0,4.594219327E-1,8.997012973E-1,1.104048347E1
1.859290372E0,7.704889178E-1,1.081555843E0,1.211725426E1
1.861415529E0,3.254238665E-1,1.158126116E0,1.228475189E1
1.863540633E0,-6.221338734E-2,1.201196909E0,1.163390350E1
1.865665737E0,2.153540403E-1,7.417750359E-1,1.064806080E1
1.867790841E0,2.440679073E-1,8.470591903E-1,9.427721024E0
1.869915945E0,-2.057827413E-1,1.646261930E0,8.484949112E0
1.872041049E0,-4.019941986E-1,1.459621787E0,8.508877754E0
1.874166154E0,-1.579262912E-1,8.279166222E-1,9.245866776E0
1.876291258E0,-3.732803464E-1,5.455635786E-1,1.005464077E1
1.878416414E0,-4.307080805E-1,9.810572863E-1,1.071027374E1
1.880541518E0,-5.264209956E-2,1.138983607E0,1.105484104E1
1.882666622E0,1.914258152E-1,8.662018180E-1,1.041356373E1
1.884791727E0,-4.402793646E-1,9.236295223E-1,9.437292099E0
1.886916831E0,-8.662018180E-1,1.847259045E0,8.853444099E0
1.889041935E0,-2.871387303E-1,2.057827473E0,8.944371223E0
1.891167039E0,8.518448472E-1,1.339980721E0,9.183652878E0
1.893292195E0,9.475577474E-1,6.029912829E-1,9.690931320E0
1.895417299E0,1.000199914E0,9.140582681E-1,1.030349445E1
1.897542404E0,1.067198873E0,1.215553880E0,1.105962658E1
1.899667508E0,7.226324677E-1,8.757730722E-1,1.113619614E1
1.901792612E0,4.019941986E-1,4.833501875E-1,1.049970531E1
1.903917716E0,4.689932466E-1,6.699903607E-1,9.485149384E0
1.906042872E0,8.135596663E-2,1.282552958E0,8.695517540E0
1.908167977E0,-3.206382394E-1,1.684547186E0,8.403593063E0
1.910293081E0,-2.584248483E-1,1.373480201E0,8.647661209E0
1.912418185E0,-6.317051649E-1,8.757730722E-1,9.288937569E0
1.914543289E0,-6.412764788E-1,9.954141974E-1,9.992427826E0
1.916668393E0,-5.694918036E-1,1.138983607E0,1.046620655E1
1.918793549E0,-6.221338734E-2,9.571290612E-1,1.049013424E1
1.920918654E0,-4.163511395E-1,6.987041831E-1,1.050927734E1
1.923043758E0,-8.566305041E-1,9.762716293E-1,1.006899738E1
1.925168862E0,-8.853443861E-1,1.665404558E0,9.384650230E0
1.927293966E0,-4.785645381E-2,1.406979680E0,9.652647018E0
1.929419122E0,1.866401732E-1,4.019941986E-1,9.877572060E0
1.931544227E0,2.632105052E-1,3.397808075E-1,9.767501831E0
1.933669331E0,2.823530734E-1,8.327022791E-1,9.619147301E0
1.935794435E0,3.014956415E-1,1.287338614E0,1.025085258E1
1.937919539E0,-2.967100143E-1,1.177268744E0,1.075813103E1
1.940044643E0,-7.322037220E-1,4.689932466E-1,1.012642574E1
1.942169747E0,-3.637090325E-1,4.833501875E-1,9.585647583E0
1.944294852E0,-6.269195080E-1,1.086341500E0,9.485149384E0
1.946420008E0,-1.038485050E0,1.033699393E0,9.241081238E0
1.948545112E0,-5.790630579E-1,8.470591903E-1,9.054440498E0
1.950670216E0,-3.445664644E-1,4.929214716E-1,9.757930756E0
1.952795320E0,-2.775674164E-1,3.780659735E-1,1.078684425E1
1.954920424E0,3.684946895E-1,1.091127157E0,1.138983536E1
1.957045529E0,3.158525825E-1,9.188438654E-1,1.156211948E1
1.959170633E0,-7.657032460E-2,4.737788737E-1,1.100219822E1
1.961295789E0,-3.397808075E-1,9.140582681E-1,1.012642574E1
1.963420893E0,-3.493520916E-1,1.344766378E0,9.379864693E0
1.965545997E0,3.828516304E-1,1.143769264E0,8.810373306E0
1.967671102E0,1.430907965E0,4.929214716E-1,8.776873589E0
1.969796154E0,9.379864931E-1,3.684946895E-1,9.446864128E0
1.971921310E0,3.062812984E-1,1.081555843E0,1.043270683E1
1.974046466E0,2.392822690E-2,1.387837172E0,1.114576817E1
1.976171570E0,8.614161611E-2,6.604190469E-1,1.128933716E1
1.978296674E0,-1.962114573E-1,6.508477330E-1,1.046620655E1
1.980421779E0,-6.795616150E-1,1.545763373E0,9.413364410E0
1.982546883E0,-6.843472719E-1,1.607976794E0,9.241081238E0
1.984671987E0,-1.435693651E-1,1.239482164E0,9.217152596E0
1.986797143E0,7.657032460E-2,8.135597110E-1,9.509077072E0
1.988922247E0,-1.627119333E-1,7.944171429E-1,1.024128056E1
1.991047352E0,2.297109663E-1,1.081555843E0,1.134197903E1
1.993172456E0,4.929214716E-1,8.853443861E-1,1.158126163E1
1.995297560E0,6.125625968E-1,6.029912829E-1,1.094955635E1
1.997422664E0,-2.536391914E-1,6.556333899E-1,9.858428955E0
1.999547768E0,-2.823530734E-1,1.641476393E0,8.949156761E0
2.001672924E0,-2.488535494E-1,1.445264935E0,8.441878319E0
2.003798029E0,4.259224236E-1,7.896314859E-1,8.609375954E0
2.005923133E0,4.929214716E-1,6.460621357E-1,9.566504478E0
2.008048237E0,0.000000000E0,9.667003751E-1,1.074377346E1
2.010173341E0,-3.828516304E-1,1.435693622E0,1.168654537E1
2.012298445E0,-5.647061467E-1,1.282552958E0,1.214118195E1
2.014423602E0,-2.823530734E-1,7.082754970E-1,1.160519028E1
2.016548706E0,-6.317051649E-1,7.704889178E-1,1.032742214E1
2.018673810E0,-4.881358147E-1,1.454836130E0,9.193224907E0
2.020798914E0,-4.450650215E-1,1.268195987E0,8.499305725E0
2.022924018E0,-7.657032460E-2,9.236295223E-1,8.776873589E0
2.025049122E0,-3.445664644E-1,3.445664644E-1,1.007378292E1
2.027174227E0,1.435693540E-2,3.541377485E-1,1.119841003E1
2.029299383E0,7.657032609E-1,8.135597110E-1,1.156211948E1
2.031424487E0,5.072783828E-1,7.082754970E-1,1.146162033E1
2.033549591E0,2.297109663E-1,4.881358147E-1,1.054277611E1
2.035674695E0,-3.158525825E-1,9.619147182E-1,9.236295700E0
2.037799799E0,-5.838487148E-1,1.593619823E0,8.547162056E0
2.039924904E0,-4.594219327E-1,1.459621787E0,8.748159409E0
2.042050060E0,3.493520916E-1,1.148554921E0,9.322437286E0
2.044175164E0,3.732803464E-1,7.704889178E-1,1.022692394E1
2.046300268E0,1.292124242E-1,9.092726111E-1,1.093998528E1
2.048425372E0,-8.135596663E-2,1.383051515E0,1.127976608E1
2.050550477E0,1.435693540E-2,1.062413216E0,1.114098263E1
2.052675581E0,1.244267747E-1,2.679961324E-1,1.011206818E1
2.054800737E0,1.148554832E-1,7.513462901E-1,8.695517540E0
2.056925841E0,-3.828516230E-2,1.493121386E0,7.829315662E0
2.059050945E0,6.795616150E-1,1.335195065E0,8.269595146E0
2.061176049E0,1.124626637E0,7.369893789E-1,9.202795982E0
2.063301154E0,9.379864931E-1,9.236295223E-1,9.963713646E0
2.065426258E0,1.009771109E0,1.062413216E0,1.100219822E1
2.067551362E0,1.234696507E0,8.901300430E-1,1.168175983E1
2.069676518E0,9.188438654E-1,4.833501875E-1,1.102134132E1
2.071801622E0,-3.349951655E-2,9.140582681E-1,9.528220177E0
2.073926727E0,-7.609176040E-1,1.502692580E0,8.724231720E0
2.076051831E0,-4.737788737E-1,1.674975872E0,8.336593628E0
2.078176935E0,2.201396823E-1,1.598405480E0,8.130811691E0
2.080302039E0,1.770688742E-1,1.148554921E0,9.068798065E0
2.082427143E0,-2.871387303E-1,8.614161611E-1,1.035613632E1
2.084552299E0,-3.780659735E-1,1.363908887E0,1.084905815E1
2.086677456E0,-6.125625968E-1,1.426122308E0,1.085862923E1
2.088802508E0,-3.876372576E-1,9.762716293E-1,1.026042366E1
2.090927612E0,-1.244267747E-1,6.939185858E-1,9.207581520E0
2.093052716E0,7.178468257E-2,1.205982566E0,8.188239098E0
2.095177820E0,2.440679073E-1,1.292124271E0,8.044670105E0
2.097302977E0,4.833501875E-1,1.191625714E0,8.671588898E0
2.099428081E0,5.551348329E-1,1.038485050E0,9.906285286E0
2.101553185E0,2.488535494E-1,8.135597110E-1,1.099262714E1
2.103678289E0,4.833501875E-1,1.253839016E0,1.137547874E1
2.105803393E0,3.637090325E-1,1.301695466E0,1.127976608E1
2.107928497E0,-1.483550072E-1,8.949156404E-1,1.048056316E1
2.110053602E0,-7.369893789E-1,1.411765337E0,9.341579437E0
2.112178758E0,-1.220339537E0,2.057827473E0,8.724231720E0
2.114303862E0,-9.762716293E-1,1.737189293E0,8.709874153E0
2.116428966E0,-1.722832322E-1,9.284151793E-1,9.097511292E0
2.118554070E0,1.148554832E-1,5.264210105E-1,9.762716293E0
2.120679174E0,-2.871387303E-1,1.052842021E0,1.022692394E1
2.122804331E0,-2.632105052E-1,1.526620865E0,1.068634605E1
2.124929435E0,-1.866401732E-1,1.000199914E0,1.093998528E1
2.127054539E0,1.674975902E-1,1.531406492E-1,1.064327526E1
2.129179643E0,7.657032460E-2,8.949156404E-1,9.442078590E0
2.131304695E0,3.397808075E-1,1.454836130E0,9.040083885E0
2.133429852E0,8.757730722E-1,7.513462901E-1,9.547362328E0
2.135554956E0,1.091127157E0,5.168496966E-1,1.016471100E1
2.137680112E0,3.254238665E-1,7.944171429E-1,1.087298584E1
2.139805216E0,3.541377485E-1,1.201196909E0,1.149990559E1
2.141930320E0,7.082754970E-1,1.033699393E0,1.183490086E1
2.144055424E0,3.110669553E-1,8.183453679E-1,1.096869946E1
2.146180529E0,-4.785645306E-1,1.014556766E0,9.556933403E0
2.148305633E0,-8.566305041E-1,1.210768223E0,8.657232285E0
2.150430737E0,-8.518448472E-1,1.521835208E0,8.360522270E0
2.152555841E0,-3.972085714E-1,1.115055323E0,8.714659691E0
2.154680997E0,2.297109663E-1,4.163511395E-1,9.446864128E0
2.156806102E0,5.120640397E-1,4.019941986E-1,1.019342422E1
2.158931206E0,1.866401732E-1,1.038485050E0,1.064806080E1
2.161056310E0,-1.148554832E-1,1.316052437E0,1.099262714E1
2.163181414E0,1.483550072E-1,8.374879360E-1,1.059541893E1
2.165306518E0,2.919243574E-1,6.364908218E-1,9.485149384E0
2.167431622E0,2.153540403E-1,1.387837172E0,8.791230202E0
2.169556779E0,4.307080805E-2,1.622333765E0,8.872586250E0
2.171681883E0,1.483550072E-1,1.296909928E0,9.131011009E0
2.173806987E0,1.914258115E-2,1.138983607E0,9.901499748E0
2.175932091E0,3.828516230E-2,7.082754970E-1,1.074855900E1
2.178057195E0,-1.148554832E-1,8.997012973E-1,1.088734341E1
2.180182352E0,5.742774159E-2,1.349551916E0,1.036092186E1
2.182307456E0,-4.402793646E-1,1.062413216E0,9.647860527E0
2.184432560E0,-6.795616150E-1,9.762716293E-1,8.791230202E0
2.186557664E0,-1.354337573E0,1.694118381E0,8.231309891E0
2.188682768E0,-1.024128079E0,1.971685886E0,8.642875671E0
2.190807872E0,-1.052841991E-1,1.249053478E0,9.494720459E0
2.192932977E0,3.972085714E-1,5.312066078E-1,1.028913784E1
2.195058133E0,-1.818545163E-1,7.226324677E-1,1.068634605E1
2.197183237E0,1.004985496E-1,1.574477315E0,1.058584690E1
2.199308341E0,-2.105683982E-1,1.134197950E0,1.013121128E1
2.201433445E0,-1.435693540E-2,4.115654826E-1,9.571290970E0
2.203558549E0,5.742774159E-2,9.188438654E-1,8.891729355E0
2.205683654E0,-3.349951655E-2,1.550549030E0,8.729017258E0
2.207808810E0,-4.307080805E-2,1.454836130E0,9.241081238E0
2.209933914E0,3.062812984E-1,1.043270707E0,9.863214493E0
2.212059018E0,-2.727817893E-1,5.647061467E-1,1.046142101E1
2.214184122E0,-2.823530734E-1,9.619147182E-1,1.059063339E1
2.216309227E0,2.775674164E-1,1.196411371E0,1.067198944E1
2.218434331E0,2.297109663E-1,5.264210105E-1,1.031785107E1
2.220559487E0,-4.785645381E-2,6.508477330E-1,9.102297783E0
2.222684591E0,-6.029912829E-1,1.124626637E0,8.188239098E0
2.224809695E0,-7.178468108E-1,1.320838094E0,8.044670105E0
2.226934799E0,9.571290761E-2,1.091127157E0,8.307880402E0
2.229059904E0,4.402793646E-1,6.269195080E-1,9.040083885E0
2.231185008E0,8.470591903E-1,6.795616150E-1,1.016949654E1
2.233310112E0,6.173482537E-1,8.135597110E-1,1.096391296E1
2.235435216E0,8.135596663E-2,1.282552958E0,1.084905815E1
2.237560372E0,-3.206382394E-1,1.229910851E0,1.020299530E1
2.239685477E0,-7.657032460E-2,8.757730722E-1,9.207581520E0
2.241810581E0,-5.742774159E-2,1.191625714E0,8.274380684E0
2.243935685E0,-2.632105052E-1,1.651047587E0,8.269595146E0
2.246060789E0,-1.722832322E-1,1.320838094E0,9.087940216E0
2.248185893E0,-4.785645287E-3,9.475577474E-1,1.008335495E1
2.250311049E0,-3.302095234E-1,8.231309652E-1,1.067677498E1
2.252436154E0,-3.254238665E-1,1.033699393E0,1.056191921E1
2.254561258E0,1.148554832E-1,1.134197950E0,9.925428391E0
2.256686362E0,-1.004985496E-1,9.762716293E-1,9.284152031E0
2.258811466E0,-7.178468257E-2,1.205982566E0,8.642875671E0
2.260936570E0,-5.407779217E-1,1.694118381E0,8.355736732E0
2.263061727E0,-6.556333899E-1,1.962114573E0,8.776873589E0
2.265186831E0,-1.914258115E-2,1.708475351E0,9.384650230E0
2.267311935E0,5.312066078E-1,8.039883971E-1,1.003071213E1
2.269437039E0,3.349951804E-1,6.795616150E-1,1.020299530E1
2.271562143E0,-7.657032460E-2,1.751546144E0,9.992427826E0
2.273687247E0,-3.206382394E-1,1.660618901E0,9.954142570E0
2.275812352E0,-3.780659735E-1,9.188438654E-1,9.762716293E0
2.277937508E0,-9.571290575E-3,1.158126116E0,9.293723106E0
2.280062612E0,-3.780659735E-1,1.426122308E0,9.126225471E0
2.282187716E0,-1.722832322E-1,1.473978758E0,9.303294182E0
2.284312872E0,9.571290761E-2,1.249053478E0,9.801001549E0
2.286437924E0,2.775674164E-1,1.081555843E0,1.009292603E1
2.288563029E0,-9.571290761E-2,8.518448472E-1,1.034177971E1
2.290688185E0,3.924229145E-1,1.167697430E0,1.034177971E1
2.292813289E0,3.732803464E-1,1.143769264E0,1.023170948E1
2.294938393E0,2.297109663E-1,5.312066078E-1,9.566504478E0
2.297063497E0,-1.770688742E-1,5.455635786E-1,8.810373306E0
2.299188602E0,-4.019941986E-1,1.488335729E0,8.408378601E0
2.301313706E0,-3.637090325E-1,1.392622828E0,8.819944382E0
2.303438810E0,4.019941986E-1,4.929214716E-1,9.518648148E0
2.305563966E0,5.455635786E-1,3.972085714E-1,1.019820976E1
2.307689070E0,5.072783828E-1,9.332008362E-1,1.078684425E1
2.309814174E0,-2.967100143E-1,1.048056364E0,1.109791183E1
2.311939279E0,-2.775674164E-1,1.052842021E0,1.078684425E1
2.314064383E0,2.392822690E-2,8.087740541E-1,9.958928108E0
2.316189487E0,-1.387837082E-1,7.322037220E-1,9.083154678E0
2.318314643E0,-5.551348329E-1,1.028913736E0,8.934800148E0
2.320439747E0,2.057827413E-1,9.810572863E-1,9.284152031E0
2.322564852E0,-1.579262912E-1,4.354937077E-1,1.001635551E1
2.324689956E0,-3.302095234E-1,2.632105052E-1,1.053799057E1
2.326815060E0,-2.057827413E-1,7.274180651E-1,1.033699417E1
2.328940164E0,3.828516304E-1,9.762716293E-1,1.006899738E1
2.331065268E0,3.349951655E-2,7.657032609E-1,9.896714211E0
2.333190424E0,4.067798555E-1,6.460621357E-1,9.681360245E0
2.335315529E0,-2.919243574E-1,1.124626637E0,9.513862610E0
2.337440633E0,-7.034898400E-1,1.780260086E0,9.580862045E0
2.339565737E0,-3.110669553E-1,1.397408366E0,1.005942631E1
2.341690841E0,4.881358147E-1,6.508477330E-1,1.045184898E1
2.343815945E0,3.302095234E-1,9.523434043E-1,1.054756260E1
2.345941049E0,-1.435693651E-1,1.564906001E0,1.038006496E1
2.348066206E0,-3.397808075E-1,1.378265858E0,1.017906761E1
2.350191310E0,-2.871387079E-2,1.043270707E0,9.934999466E0
2.352316414E0,1.100698411E-1,7.417750359E-1,9.834501266E0
2.354441518E0,-4.785645287E-3,8.231309652E-1,9.772287369E0
2.356566622E0,1.914258115E-2,1.028913736E0,9.973284721E0
2.358691779E0,2.201396823E-1,1.450050473E0,1.033220863E1
2.360816883E0,9.571290761E-2,1.052842021E0,1.087777138E1
2.362941987E0,1.627119333E-1,6.556333899E-1,1.087298584E1
2.365067091E0,3.110669553E-1,1.014556766E0,1.075334454E1
2.367192195E0,-7.178468257E-2,9.619147182E-1,1.082512951E1
2.369317299E0,5.312066078E-1,7.992027402E-1,1.042792130E1
2.371442404E0,7.178468257E-2,1.076770186E0,9.700503349E0
2.373567508E0,-8.662018180E-1,1.311266780E0,9.662218094E0
2.375692664E0,-1.048056364E0,1.746760488E0,9.643074989E0
2.377817768E0,4.785645381E-2,1.316052437E0,9.920642853E0
2.379942872E0,4.594219327E-1,7.992027402E-1,1.039920712E1
2.382067977E0,-4.785645287E-3,9.571290612E-1,1.087298584E1
2.384193081E0,1.818545163E-1,1.124626637E0,1.074377346E1
2.386318185E0,-3.062812984E-1,1.148554921E0,1.034656525E1
2.388443289E0,-2.105683982E-1,1.234696507E0,9.868000984E0
2.390568445E0,1.914258115E-2,6.077769399E-1,9.446864128E0
2.392693549E0,-9.571290575E-3,1.115055323E0,9.260223389E0
2.394818654E0,-2.201396823E-1,1.296909928E0,9.681360245E0
2.396943758E0,-2.392822690E-2,9.571290612E-1,1.006421185E1
2.399068862E0,1.483550072E-1,7.513462901E-1,1.004506969E1
2.401193966E0,-2.392822690E-2,7.226324677E-1,9.891928673E0
2.403319122E0,2.584248483E-1,1.177268744E0,9.891928673E0
2.405444227E0,6.364908218E-1,1.335195065E0,9.982855797E0
2.407569331E0,4.977070987E-1,1.095912814E0,9.863214493E0
2.409694435E0,-1.674975902E-1,7.704889178E-1,9.887143135E0
2.411819539E0,-6.364908218E-1,1.584048629E0,9.738788605E0
2.413944695E0,-5.694918036E-1,1.789831281E0,9.824930191E0
2.416069799E0,4.881358147E-1,7.944171429E-1,9.757930756E0
2.418194956E0,7.369893789E-1,4.402793646E-1,9.561718941E0
2.420320008E0,1.387837082E-1,1.124626637E0,9.767501831E0
2.422445112E0,-4.450650215E-1,1.368694544E0,1.029870892E1
2.424570216E0,-2.727817893E-1,1.205982566E0,1.049970531E1
2.426695268E0,1.004985496E-1,9.188438654E-1,1.027478027E1
2.428820424E0,-9.571290761E-2,1.196411371E0,9.556933403E0
2.430945529E0,-4.689932466E-1,1.301695466E0,9.288937569E0
2.433070685E0,2.057827413E-1,1.732403636E0,9.695717812E0
2.435195789E0,7.082754970E-1,1.158126116E0,1.039920712E1
2.437320893E0,4.737788737E-1,4.642075896E-1,1.060499001E1
2.439445997E0,2.679961324E-1,1.272981644E0,1.080120182E1
2.441571102E0,6.939185858E-1,1.354337573E0,1.126062298E1
2.443696258E0,7.274180651E-1,5.503492355E-1,1.070548820E1
2.445821362E0,4.019941986E-1,8.422735929E-1,9.509077072E0
2.447946466E0,-6.747759581E-1,1.196411371E0,9.355937004E0
2.450071570E0,-6.604190469E-1,1.430907965E0,9.973284721E0
2.452196674E0,-3.924229145E-1,1.105484009E0,1.021735287E1
2.454321779E0,-4.785645381E-2,8.949156404E-1,1.031785107E1
2.456446935E0,7.178468257E-2,4.402793646E-1,1.054277611E1
2.458572039E0,1.100698411E-1,7.178468108E-1,1.015992451E1
2.460697143E0,-3.972085714E-1,1.339980721E0,9.638289452E0
2.462822247E0,-5.216353536E-1,1.397408366E0,9.389435768E0
2.464947352E0,-1.100698411E-1,9.236295223E-1,9.260223389E0
2.467072456E0,1.579262912E-1,7.082754970E-1,9.298508644E0
2.469197560E0,1.244267747E-1,9.810572863E-1,9.533005714E0
2.471322716E0,3.541377485E-1,1.119840980E0,9.877572060E0
2.473447820E0,6.221339107E-1,7.944171429E-1,1.052841949E1
2.475572924E0,6.939185858E-1,5.120640397E-1,1.086820030E1
2.477698029E0,5.599204898E-1,5.312066078E-1,1.070070267E1
2.479823133E0,7.130611539E-1,8.470591903E-1,1.047577763E1
2.481948237E0,5.742774606E-1,1.301695466E0,1.014078236E1
2.484073341E0,2.871387079E-2,1.009771109E0,9.810572624E0
2.486198497E0,-3.876372576E-1,1.311266780E0,9.566504478E0
2.488323602E0,-4.450650215E-1,1.890329838E0,9.595218658E0
2.490448706E0,-3.637090325E-1,1.473978758E0,9.954142570E0
2.492573810E0,2.584248483E-1,5.503492355E-1,1.026042366E1
2.494698914E0,4.211367965E-1,3.206382394E-1,1.015513897E1
2.496824018E0,1.004985496E-1,1.244267821E0,1.006899738E1
2.498949174E0,-3.349951804E-1,1.124626637E0,1.038006496E1
2.501074279E0,3.684946895E-1,7.465606928E-1,1.046142101E1
2.503199383E0,4.307080805E-1,6.699903607E-1,1.027956581E1
2.505324487E0,-6.221338734E-2,1.052842021E0,1.035613632E1
2.507449591E0,1.866401732E-1,1.124626637E0,1.058106136E1
2.509574695E0,4.881358147E-1,1.320838094E0,1.072463131E1
2.511699799E0,1.531406492E-1,1.067198873E0,1.108355427E1
2.513824956E0,-1.627119333E-1,5.886343718E-1,1.140419292E1
2.515950060E0,5.359922647E-1,7.322037220E-1,1.129890823E1
2.518075164E0,8.614161611E-2,9.858429432E-1,1.081077290E1
2.520200268E0,-4.642075896E-1,6.843472719E-1,1.003549862E1
2.522325372E0,-8.183453679E-1,7.369893789E-1,9.174081802E0
2.524450477E0,-1.258624673E0,1.287338614E0,9.226723671E0
2.526575633E0,-1.100698471E0,1.392622828E0,9.839286804E0
2.528700737E0,-1.004985496E-1,6.412764788E-1,1.030349445E1
2.530825841E0,2.536391914E-1,3.541377485E-1,1.031785107E1
2.532950945E0,1.004985496E-1,7.609176040E-1,1.027478027E1
2.535076049E0,-1.339980662E-1,8.422735929E-1,1.019820976E1
2.537201206E0,1.962114573E-1,1.287338614E0,9.762716293E0
2.539326310E0,1.531406492E-1,1.119840980E0,9.767501831E0
2.541451414E0,7.657032460E-2,6.508477330E-1,9.992427826E0
2.543576518E0,4.977070987E-1,1.234696507E0,9.877572060E0
2.545701622E0,2.823530734E-1,1.421336651E0,1.008335495E1
2.547826727E0,9.571290575E-3,8.901300430E-1,1.040399265E1
2.549951831E0,1.627119333E-1,5.503492355E-1,1.047577763E1
2.552076935E0,1.866401732E-1,4.211367965E-1,1.025085258E1
2.554202091E0,4.019941986E-1,1.038485050E0,1.013599682E1
2.556327195E0,2.344966233E-1,9.619147182E-1,1.039920712E1
2.558452299E0,1.674975902E-1,6.699903607E-1,9.643074989E0
2.560577404E0,-6.317051649E-1,1.143769264E0,9.092725754E0
2.562702508E0,-1.076770186E0,1.550549030E0,9.140582085E0
2.564827612E0,-2.009970993E-1,1.564906001E0,9.710074425E0
2.566952716E0,6.412764788E-1,8.901300430E-1,1.031306553E1
2.569077820E0,5.694918036E-1,3.541377485E-1,1.054277611E1
2.571202977E0,4.354937077E-1,1.024128079E0,1.050927734E1
2.573328081E0,4.402793646E-1,1.402194023E0,1.038006496E1
2.575453185E0,1.674975902E-1,1.249053478E0,1.008335495E1
2.577578289E0,1.244267747E-1,1.071984529E0,1.004028416E1
2.579703393E0,8.135596663E-2,9.332008362E-1,1.005464077E1
2.581828549E0,-8.614161611E-2,1.258624673E0,1.008814049E1
2.583953654E0,6.221338734E-2,1.828116536E0,1.040399265E1
2.586078810E0,7.657032460E-2,1.272981644E0,1.111705399E1
2.588203862E0,-2.440679073E-1,6.029912829E-1,1.091605663E1
2.590328966E0,1.387837082E-1,1.052842021E0,9.858428955E0
2.592454070E0,-7.178468257E-2,9.858429432E-1,9.580862045E0
2.594579174E0,2.440679073E-1,9.571290612E-1,9.413364410E0
2.596704279E0,4.785645381E-2,1.067198873E0,9.312865257E0
2.598829435E0,-6.939185858E-1,9.810572863E-1,9.542576790E0
2.600954539E0,-8.039883971E-1,1.430907965E0,9.805787086E0
2.603079643E0,-1.770688742E-1,1.603191137E0,1.001156998E1
2.605204747E0,1.674975902E-1,6.891329288E-1,1.032263660E1
2.607329852E0,5.694918036E-1,7.274180651E-1,1.026999474E1
2.609454956E0,2.344966233E-1,1.110269666E0,1.035613632E1
2.611580164E0,-1.148554832E-1,1.091127157E0,1.066241741E1
2.613705216E0,-3.780659735E-1,1.306481123E0,1.023649502E1
2.615830320E0,-1.435693651E-1,1.000199914E0,9.427721024E0
2.617955424E0,-6.460621357E-1,8.566305041E-1,8.939585686E0
2.620080529E0,-2.536391914E-1,1.354337573E0,9.025727272E0
2.622205633E0,-4.115654826E-1,1.119840980E0,9.834501266E0
2.624330789E0,-1.579262912E-1,6.747759581E-1,1.061456108E1
2.626455893E0,5.264209956E-2,2.488535494E-1,1.064806080E1
2.628580997E0,3.062812984E-1,4.594219327E-1,1.006421185E1
2.630706102E0,3.684946895E-1,8.518448472E-1,9.767501831E0
2.632831206E0,4.354937077E-1,8.757730722E-1,9.595218658E0
2.634956310E0,9.571290761E-2,6.747759581E-1,9.241081238E0
2.637081414E0,-2.967100143E-1,1.205982566E0,9.097511292E0
2.639206570E0,-1.292124242E-1,1.957328916E0,9.604789734E0
2.641331674E0,4.354937077E-1,1.368694544E0,9.997213364E0
2.643456779E0,9.379864931E-1,3.732803464E-1,1.010249710E1
2.645581883E0,2.727817893E-1,7.657032609E-1,1.007856941E1
2.647706987E0,4.019941986E-1,1.292124271E0,1.001156998E1
2.649832091E0,2.823530734E-1,1.177268744E0,9.877572060E0
2.651957247E0,-4.785645381E-2,1.057627559E0,9.743574142E0
2.654082352E0,5.264209956E-2,7.752745152E-1,9.547362328E0
2.656207456E0,4.929214716E-1,8.614161611E-1,9.690931320E0
2.658332560E0,1.914258152E-1,1.043270707E0,1.022213840E1
2.660457664E0,-1.292124242E-1,1.478764415E0,1.051406288E1
2.662582768E0,1.244267747E-1,7.369893789E-1,1.081555843E1
2.664707924E0,4.163511395E-1,3.254238665E-1,1.066241741E1
2.666833029E0,2.727817893E-1,9.810572863E-1,1.026042366E1
2.668958133E0,2.249253243E-1,1.478764415E0,9.762716293E0
2.671083237E0,0.000000000E0,1.182054400E0,9.408578873E0
2.673208341E0,-4.977070987E-1,9.619147182E-1,9.001798630E0
2.675333445E0,-8.135597110E-1,1.459621787E0,9.188439369E0
2.677458549E0,-3.349951804E-1,1.593619823E0,9.939785004E0
2.679583706E0,2.679961324E-1,1.019342422E0,1.036092186E1
2.681708810E0,4.450650215E-1,7.369893789E-1,1.046142101E1
2.683833914E0,4.354937077E-1,8.566305041E-1,1.037527943E1
2.685959018E0,1.148554832E-1,8.757730722E-1,1.010249710E1
2.688084122E0,-3.349951655E-2,1.115055323E0,9.863214493E0
2.690209227E0,-2.392822690E-2,1.067198873E0,9.643074989E0
2.692334331E0,-2.632105052E-1,5.168496966E-1,9.413364410E0
2.694459487E0,-1.722832322E-1,1.201196909E0,8.977870941E0
2.696584591E0,-2.344966233E-1,1.641476393E0,9.178867340E0
2.698709695E0,-1.483550072E-1,1.368694544E0,9.982855797E0
2.700834799E0,8.135596663E-2,8.470591903E-1,1.045663452E1
2.702959904E0,2.344966233E-1,5.455635786E-1,1.010249710E1
2.705085008E0,2.967100143E-1,8.997012973E-1,9.446864128E0
2.707210164E0,3.684946895E-1,1.287338614E0,9.269794464E0
2.709335268E0,-1.387837082E-1,7.657032609E-1,9.245866776E0
2.711460372E0,-5.359922647E-1,5.551348329E-1,9.241081238E0
2.713585477E0,-5.982056856E-1,1.301695466E0,9.150154114E0
2.715710581E0,-1.674975902E-1,1.497906923E0,9.308079720E0
2.717835685E0,3.397808075E-1,5.120640397E-1,9.963713646E0
2.719960789E0,2.009970993E-1,3.732803464E-1,1.007856941E1
2.722085945E0,4.833501875E-1,1.000199914E0,1.008814049E1
2.724211049E0,6.699903309E-2,1.038485050E0,9.820143700E0
2.726336154E0,3.206382394E-1,1.277767301E0,9.695717812E0
2.728461258E0,1.770688742E-1,8.997012973E-1,9.681360245E0
2.730586362E0,3.828516230E-2,8.566305041E-1,9.494720459E0
2.732711466E0,2.871387303E-1,1.311266780E0,9.542576790E0
2.734836622E0,8.614161611E-2,1.272981644E0,1.010728264E1
2.736961727E0,2.297109663E-1,8.901300430E-1,1.047577763E1
2.739086831E0,5.742774159E-2,4.307080805E-1,1.059063339E1
2.741211935E0,8.231309652E-1,6.269195080E-1,1.037527943E1
2.743337039E0,7.082754970E-1,8.135597110E-1,9.858428955E0
2.745462143E0,5.024927258E-1,1.268195987E0,9.537791252E0
2.747587299E0,2.488535494E-1,9.379864931E-1,9.547362328E0
2.749712404E0,-3.397808075E-1,8.039883971E-1,9.451649666E0
2.751837508E0,-5.790630579E-1,1.698904037E0,9.322437286E0
2.753962612E0,2.967100143E-1,1.512263894E0,9.686145782E0
2.756087716E0,3.541377485E-1,5.455635786E-1,1.015513897E1
2.758212820E0,7.417750359E-1,1.009771109E0,1.046620655E1
2.760337924E0,2.727817893E-1,1.033699393E0,1.034656525E1
2.762463081E0,2.632105052E-1,1.143769264E0,1.020299530E1
2.764588185E0,-1.387837082E-1,1.651047587E0,9.925428391E0
2.766713289E0,1.531406492E-1,1.186840057E0,9.619147301E0
2.768838393E0,2.392822690E-2,7.465606928E-1,8.982656479E0
2.770963497E0,9.092725813E-2,1.344766378E0,8.829515457E0
2.773088602E0,-4.115654826E-1,1.282552958E0,9.561718941E0
2.775213706E0,1.674975902E-1,6.508477330E-1,1.000678444E1
2.777338862E0,7.896314859E-1,3.349951804E-1,9.724431038E0
2.779463966E0,5.312066078E-1,4.642075896E-1,9.379864693E0
2.781589070E0,7.800601721E-1,1.220339537E0,9.279366493E0
2.783714174E0,8.135597110E-1,1.354337573E0,9.561718941E0
2.785839279E0,4.833501875E-1,5.934200287E-1,9.614361763E0
2.787964383E0,-4.881358147E-1,8.997012973E-1,9.427721024E0
2.790089539E0,8.135596663E-2,1.660618901E0,9.667003632E0
2.792214643E0,1.292124242E-1,9.619147182E-1,1.029392338E1
2.794339747E0,3.541377485E-1,6.604190469E-1,1.041835022E1
2.796464852E0,-1.196411327E-1,6.269195080E-1,1.003549862E1
2.798589956E0,-2.153540403E-1,9.475577474E-1,9.815358162E0
2.800715060E0,-7.752745152E-1,8.183453679E-1,1.004028416E1
2.802840164E0,-4.498506486E-1,8.279166222E-1,1.002592659E1
2.804965320E0,-5.264209956E-2,1.962114573E-1,9.576076508E0
2.807090424E0,-3.828516230E-2,4.019941986E-1,8.925228119E0
2.809215529E0,-4.833501875E-1,1.201196909E0,9.049654961E0
2.811340633E0,9.571290761E-2,1.263410330E0,9.882357597E0
2.813465737E0,4.211367965E-1,3.876372576E-1,1.016471100E1
2.815590841E0,7.130611539E-1,4.211367965E-1,1.014556789E1
2.817715997E0,8.231309652E-1,6.604190469E-1,1.058106136E1
2.819841102E0,8.279166222E-1,7.369893789E-1,1.054756260E1
2.821966206E0,4.929214716E-1,7.657032609E-1,9.992427826E0
2.824091310E0,2.392822690E-2,1.067198873E0,9.336793900E0
2.826216414E0,-8.087740541E-1,1.215553880E0,9.485149384E0
2.828341518E0,-6.221338734E-2,1.622333765E0,9.920642853E0
2.830466622E0,3.780659735E-1,9.667003751E-1,1.038006496E1
2.832591779E0,5.264209956E-2,5.551348329E-1,1.056191921E1
2.834716883E0,-1.627119333E-1,8.614161611E-1,1.036570740E1
2.836841987E0,6.699903309E-2,1.033699393E0,9.901499748E0
2.838967091E0,-1.052841991E-1,1.014556766E0,9.528220177E0
2.841092195E0,2.201396823E-1,1.167697430E0,9.260223389E0
2.843217299E0,4.450650215E-1,5.312066078E-1,9.370293617E0
2.845342456E0,6.077769399E-1,7.944171429E-1,9.403793335E0
2.847467560E0,3.637090325E-1,1.612762451E0,9.786644936E0
2.849592664E0,3.158525825E-1,1.134197950E0,1.034177971E1
2.851717768E0,6.939185858E-1,6.843472719E-1,1.070548820E1
2.853842872E0,6.221339107E-1,6.460621357E-1,1.074377346E1
2.855967977E0,2.584248483E-1,8.662018180E-1,1.073420238E1
2.858093081E0,6.269195080E-1,1.383051515E0,1.073420238E1
2.860218237E0,-9.571290575E-3,1.119840980E0,1.060977554E1
2.862343341E0,-8.422735929E-1,8.279166222E-1,9.992427826E0
2.864468445E0,-9.427721500E-1,1.201196909E0,9.250652313E0
2.866593549E0,-7.178468108E-1,1.445264935E0,9.135796547E0
2.868718654E0,-1.483550072E-1,1.071984529E0,9.399007797E0
2.870843758E0,9.571290575E-3,5.072783828E-1,9.489934921E0
2.872968914E0,1.579262912E-1,1.009771109E0,9.499505997E0
2.875094018E0,3.158525825E-1,1.158126116E0,1.002114105E1
2.877219122E0,4.019941986E-1,8.327022791E-1,1.009771156E1
2.879344227E0,6.987041831E-1,7.561319470E-1,9.585647583E0
2.881469331E0,3.110669553E-1,5.694918036E-1,9.422935486E0
2.883594435E0,-2.536391914E-1,9.667003751E-1,9.734002113E0
2.885719539E0,3.302095234E-1,1.335195065E0,1.011685371E1
2.887844695E0,2.249253243E-1,1.091127157E0,1.087298584E1
2.889969799E0,3.110669553E-1,5.647061467E-1,1.115533924E1
2.892094904E0,6.029912829E-1,8.662018180E-1,1.083470058E1
2.894220008E0,4.833501875E-1,9.714859724E-1,1.038485050E1
2.896345112E0,-3.206382394E-1,1.004985452E0,9.633503914E0
2.898470268E0,-3.876372576E-1,1.306481123E0,8.977870941E0
2.900595372E0,-8.518448472E-1,1.024128079E0,9.054440498E0
2.902720477E0,-7.130611539E-1,1.196411371E0,9.198010445E0
2.904845581E0,2.249253243E-1,1.062413216E0,9.399007797E0
2.906970685E0,1.196411327E-1,6.029912829E-1,9.882357597E0
2.909095789E0,2.823530734E-1,5.742774606E-1,1.035613632E1
2.911220893E0,3.302095234E-1,6.077769399E-1,1.048056316E1
2.913346049E0,1.818545163E-1,9.044869542E-1,1.056191921E1
2.915471154E0,1.004985496E-1,1.124626637E0,1.060020447E1
2.917596258E0,6.364908218E-1,1.320838094E0,9.868000984E0
2.919721362E0,3.780659735E-1,1.009771109E0,9.518648148E0
2.921846466E0,-1.674975902E-1,1.392622828E0,9.738788605E0
2.923971570E0,-2.201396823E-1,1.962114573E0,1.000678444E1
2.926096674E0,2.153540403E-1,1.210768223E0,1.042792130E1
2.928221779E0,2.344966233E-1,5.312066078E-1,1.055713367E1
2.930346935E0,1.627119333E-1,7.082754970E-1,1.009771156E1
2.932472039E0,1.962114573E-1,1.316052437E0,9.695717812E0
2.934597143E0,8.135596663E-2,1.091127157E0,9.772287369E0
2.936722247E0,-3.445664644E-1,8.327022791E-1,9.518648148E0
2.938847352E0,-5.359922647E-1,1.000199914E0,9.312865257E0
2.940972456E0,-3.206382394E-1,1.210768223E0,9.413364410E0
2.943097612E0,1.435693540E-2,1.215553880E0,9.657432556E0
2.945222716E0,3.732803464E-1,1.009771109E0,9.796216011E0
2.947347820E0,6.699903309E-2,7.752745152E-1,1.000678444E1
2.949472924E0,2.392822690E-2,1.320838094E0,1.019820976E1
2.951598029E0,5.312066078E-1,1.942971945E0,1.027478027E1
2.953723133E0,6.173482537E-1,1.277767301E0,1.035613632E1
2.955848289E0,2.249253243E-1,8.327022791E-1,1.014078236E1
2.957973393E0,4.785645287E-3,1.182054400E0,9.834501266E0
2.960098497E0,-3.876372576E-1,1.363908887E0,1.001156998E1
2.962223602E0,-1.579262912E-1,1.239482164E0,1.016471100E1
2.964348706E0,-1.579262912E-1,7.800601721E-1,1.055234814E1
2.966473810E0,8.614161611E-2,5.838487148E-1,1.067677498E1
2.968598966E0,4.546363056E-1,5.168496966E-1,1.043749237E1
2.970724122E0,2.488535494E-1,8.039883971E-1,9.714859962E0
2.972849174E0,-5.359922647E-1,1.172483087E0,9.221938133E0
2.974974279E0,-7.561319470E-1,1.048056364E0,8.953942299E0
2.977099383E0,-4.067798555E-1,7.800601721E-1,9.131011009E0
2.979224487E0,3.541377485E-1,1.249053478E0,9.403793335E0
2.981349643E0,3.110669553E-1,1.373480201E0,9.757930756E0
2.983474747E0,5.312066078E-1,1.081555843E0,1.050927734E1
2.985599852E0,6.029912829E-1,1.019342422E0,1.110269737E1
2.987724956E0,5.742774606E-1,9.858429432E-1,1.074855900E1
2.989850060E0,2.823530734E-1,1.033699393E0,1.000199890E1
2.991975164E0,5.742774159E-2,1.617548108E0,9.638289452E0
2.994100268E0,-4.785645381E-2,1.019342422E0,9.489934921E0
2.996225424E0,-3.206382394E-1,4.833501875E-1,8.997013092E0
2.998350529E0,-2.344966233E-1,1.402194023E0,8.939585686E0
3.000475633E0,-5.024927258E-1,1.229910851E0,9.810572624E0
3.002600737E0,3.349951655E-2,7.369893789E-1,1.034656525E1
3.004725841E0,7.848458290E-1,2.440679073E-1,1.026999474E1
3.006850945E0,6.556333899E-1,3.062812984E-1,9.963713646E0
3.008976049E0,-1.339980662E-1,1.349551916E0,9.499505997E0
3.011101206E0,-1.627119333E-1,1.770688772E0,9.762716293E0
3.013226310E0,-9.571290761E-2,5.694918036E-1,1.000199890E1
3.015351414E0,-2.009970993E-1,7.848458290E-1,9.652647018E0
3.017476518E0,-2.249253243E-1,1.789831281E0,9.504291534E0
3.019601622E0,8.135596663E-2,1.129412293E0,1.042792130E1
3.021726727E0,2.201396823E-1,5.886343718E-1,1.082991505E1
3.023851831E0,6.699903309E-2,9.284151793E-1,1.042313576E1
3.025976987E0,-4.211367965E-1,1.220339537E0,1.010728264E1
3.028102091E0,-4.019941986E-1,1.387837172E0,1.024606609E1
3.030227195E0,1.722832322E-1,1.450050473E0,1.021256733E1
3.032352299E0,6.699903309E-2,6.412764788E-1,9.748359680E0
3.034477404E0,-3.924229145E-1,7.800601721E-1,9.829715729E0
3.036602560E0,-4.594219327E-1,1.593619823E0,1.022213840E1
3.038727664E0,1.770688742E-1,1.287338614E0,1.064327526E1
3.040852768E0,7.082754970E-1,1.962114573E-1,1.084427261E1
3.042977872E0,6.317051649E-1,4.833501875E-1,1.060020447E1
3.045102977E0,5.838487148E-1,8.901300430E-1,1.025563812E1
3.047228081E0,-2.057827413E-1,7.848458290E-1,1.018863869E1
3.049353185E0,-2.392822690E-2,1.607976794E0,1.011206818E1
3.051478289E0,-4.259224236E-1,9.092726111E-1,9.934999466E0
3.053603445E0,-2.344966233E-1,9.044869542E-1,9.619147301E0
3.055728549E0,-4.211367965E-1,1.655833244E0,9.992427826E0
3.057853654E0,-4.785645287E-3,1.440479279E0,1.023170948E1
3.059978758E0,-2.153540403E-1,6.604190469E-1,1.009771156E1
3.062103862E0,9.571290575E-3,9.906286001E-1,9.920642853E0
3.064228966E0,1.387837082E-1,1.186840057E0,9.958928108E0
3.066354122E0,4.546363056E-1,1.009771109E0,9.805787086E0
3.068479227E0,9.188438654E-1,1.196411371E0,9.480362892E0
3.070604331E0,5.312066078E-1,7.704889178E-1,9.480362892E0
3.072729435E0,-3.445664644E-1,1.177268744E0,9.600004196E0
3.074854487E0,-4.785645381E-2,1.555334687E0,9.882357597E0
3.076979643E0,8.135596663E-2,8.374879360E-1,1.043270683E1
3.079104747E0,6.747759581E-1,5.694918036E-1,1.030349445E1
3.081229904E0,9.140582681E-1,2.249253243E-1,1.013599682E1
3.083355008E0,4.977070987E-1,3.876372576E-1,9.978070259E0
3.085480112E0,-3.924229145E-1,1.158126116E0,1.008814049E1
3.087605216E0,-2.679961324E-1,1.387837172E0,1.002592659E1
3.089730320E0,-3.589234054E-1,6.939185858E-1,9.131011009E0
3.091855424E0,-4.211367965E-1,1.196411371E0,8.690732002E0
3.093980581E0,-5.790630579E-1,1.861616015E0,9.236295700E0
3.096105685E0,3.828516304E-1,1.564906001E0,9.887143135E0
3.098230789E0,3.206382394E-1,1.067198873E0,9.968499184E0
3.100355893E0,4.594219327E-1,1.287338614E0,9.949356079E0
3.102480997E0,3.062812984E-1,1.024128079E0,9.934999466E0
3.104606102E0,7.082754970E-1,9.332008362E-1,9.686145782E0
3.106731258E0,6.939185858E-1,1.014556766E0,9.623932838E0
3.108856362E0,2.775674164E-1,6.843472719E-1,9.542576790E0
3.110981466E0,-3.828516230E-2,1.004985452E0,9.456435204E0
3.113106570E0,-2.775674164E-1,1.430907965E0,1.009771156E1
3.115231674E0,5.168496966E-1,1.368694544E0,1.063370419E1
3.117356779E0,6.652047038E-1,4.450650215E-1,1.071027374E1
3.119481883E0,5.216353536E-1,6.508477330E-1,1.011685371E1
3.121607039E0,1.292124242E-1,1.296909928E0,9.944570541E0
3.123732143E0,-4.977070987E-1,1.363908887E0,9.992427826E0
3.125857247E0,-4.067798555E-1,9.332008362E-1,9.628718376E0
3.127982352E0,-3.302095234E-1,8.470591903E-1,9.040083885E0
3.130107456E0,-1.674975902E-1,1.024128079E0,8.638090134E0
3.132232560E0,-2.679961324E-1,1.229910851E0,9.131011009E0
3.134357664E0,-6.699903309E-2,1.100698471E0,1.011206818E1
3.136482820E0,-1.196411327E-1,1.028913736E0,1.025563812E1
3.138607924E0,3.828516304E-1,1.004985452E0,9.930213928E0
3.140733029E0,3.972085714E-1,7.226324677E-1,9.858428955E0
3.142858133E0,7.752745152E-1,1.383051515E0,9.757930756E0
3.144983237E0,5.599204898E-1,1.277767301E0,9.375079155E0
3.147108341E0,2.009970993E-1,8.853443861E-1,9.485149384E0
3.149233497E0,-3.541377485E-1,1.234696507E0,9.982855797E0
3.151358602E0,-3.254238665E-1,1.617548108E0,1.022692394E1
3.153483706E0,-2.871387079E-2,7.752745152E-1,1.033699417E1
3.155608810E0,1.483550072E-1,3.924229145E-1,1.031306553E1
3.157733914E0,-2.153540403E-1,5.120640397E-1,1.002592659E1
3.159859018E0,-5.359922647E-1,1.014556766E0,9.676574707E0
3.161984122E0,-3.972085714E-1,1.320838094E0,9.518648148E0
3.164109279E0,-4.689932466E-1,1.205982566E0,9.178867340E0
3.166234383E0,-2.344966233E-1,8.135597110E-1,9.035298347E0
3.168359487E0,1.148554832E-1,1.287338614E0,8.901300430E0
3.170484591E0,3.876372576E-1,1.564906001E0,9.221938133E0
3.172609695E0,5.551348329E-1,1.292124271E0,9.705288887E0
3.174734799E0,4.211367965E-1,1.062413216E0,1.004028416E1
3.176859956E0,5.455635786E-1,8.327022791E-1,1.056670475E1
3.178985060E0,1.081555843E0,1.129412293E0,1.051406288E1
3.181110164E0,8.039883971E-1,1.383051515E0,1.015035343E1
3.183235268E0,4.642075896E-1,1.119840980E0,9.542576790E0
3.185360372E0,1.531406492E-1,1.201196909E0,9.513862610E0
3.187485477E0,-4.594219327E-1,1.387837172E0,9.743574142E0
3.189610581E0,-2.679961324E-1,1.316052437E0,1.011206818E1
3.191735737E0,3.445664644E-1,7.369893789E-1,1.027956581E1
3.193860841E0,2.919243574E-1,1.914258152E-1,1.001156998E1
3.195985945E0,3.110669553E-1,9.427721500E-1,9.647860527E0
3.198111049E0,-1.962114573E-1,1.258624673E0,9.896714211E0
3.200236154E0,-2.632105052E-1,1.024128079E0,9.791430473E0
3.202361258E0,6.221338734E-2,9.906286001E-1,9.236295700E0
3.204486414E0,2.344966233E-1,9.714859724E-1,9.207581520E0
3.206611518E0,5.742774159E-2,8.949156404E-1,9.801001549E0
3.208736622E0,2.009970993E-1,1.459621787E0,1.021256733E1
3.210861727E0,0.000000000E0,1.287338614E0,1.092562866E1
3.212986831E0,2.871387303E-1,6.843472719E-1,1.101655579E1
3.215111935E0,-5.264209956E-2,5.694918036E-1,1.053320503E1
3.217237091E0,1.244267747E-1,1.354337573E0,1.047099209E1
3.219362195E0,-2.009970993E-1,1.129412293E0,1.027956581E1
3.221487299E0,-3.780659735E-1,1.138983607E0,9.647860527E0
3.223612404E0,-1.119840980E0,1.105484009E0,9.241081238E0
3.225737508E0,-1.162911773E0,1.488335729E0,9.231510162E0
3.227862612E0,-7.704889178E-1,1.153340459E0,9.413364410E0
3.229987768E0,3.014956415E-1,7.082754970E-1,9.690931320E0
3.232112872E0,-2.392822690E-2,5.024927258E-1,9.891928673E0
3.234237977E0,2.775674164E-1,1.339980662E-1,9.882357597E0
3.236363081E0,-1.052841991E-1,9.332008362E-1,9.738788605E0
3.238488185E0,-2.392822690E-2,1.440479279E0,9.911071777E0
3.240613289E0,-1.914258115E-2,7.896314859E-1,9.633503914E0
3.242738393E0,1.292124242E-1,6.317051649E-1,9.528220177E0
3.244863549E0,-5.264209956E-2,1.584048629E0,9.260223389E0
3.246988654E0,-9.571290761E-2,1.785045743E0,1.001635551E1
3.249113758E0,1.818545163E-1,1.229910851E0,1.025563812E1
3.251238862E0,6.173482537E-1,8.901300430E-1,9.801001549E0
3.253363966E0,3.684946895E-1,9.571290612E-1,9.695717812E0
3.255489070E0,6.460621357E-1,1.172483087E0,9.509077072E0
3.257614174E0,9.092725813E-2,1.282552958E0,9.561718941E0
3.259739331E0,-2.488535494E-1,1.004985452E0,9.446864128E0
3.261864435E0,-3.972085714E-1,8.279166222E-1,9.308079720E0
3.263989539E0,-2.632105052E-1,1.028913736E0,9.442078590E0
3.266114643E0,2.536391914E-1,1.081555843E0,9.772287369E0
3.268239747E0,9.140582681E-1,7.369893789E-1,1.009292603E1
3.270364852E0,1.110269666E0,2.009970993E-1,1.030349445E1
3.272490008E0,7.082754970E-1,9.044869542E-1,1.054277611E1
3.274615112E0,7.657032460E-2,1.095912814E0,1.070070267E1
3.276740216E0,0.000000000E0,1.186840057E0,9.925428391E0
3.278865320E0,3.014956415E-1,1.335195065E0,9.370293617E0
3.280990424E0,-8.135596663E-2,9.523434043E-1,9.183652878E0
3.283115529E0,3.828516230E-2,1.316052437E0,9.537791252E0
3.285240633E0,-3.302095234E-1,1.244267821E0,9.930213928E0
3.287365789E0,-1.004985496E-1,9.954141974E-1,1.017906761E1
3.289490893E0,5.742774159E-2,3.828516304E-1,1.019820976E1
3.291615997E0,2.584248483E-1,2.679961324E-1,1.014078236E1
3.293741102E0,-5.742774159E-2,9.236295223E-1,9.815358162E0
3.295866206E0,-3.828516230E-2,1.091127157E0,9.590433121E0
3.297991310E0,-1.627119333E-1,1.004985452E0,9.590433121E0
3.300116414E0,-7.322037220E-1,9.332008362E-1,9.360722542E0
3.302241570E0,-6.604190469E-1,1.440479279E0,9.432506561E0
3.304366674E0,-6.221338734E-2,8.087740541E-1,9.729216576E0
3.306491779E0,4.019941986E-1,3.158525825E-1,9.714859962E0
3.308616883E0,1.674975902E-1,8.901300430E-1,9.920642853E0
3.310741987E0,1.435693540E-2,1.339980662E-1,1.041356373E1
3.312867143E0,1.196411327E-1,7.657032609E-1,1.018385315E1
3.314992247E0,1.292124242E-1,1.387837172E0,9.992427826E0
3.317117352E0,-3.349951655E-2,6.843472719E-1,9.236295700E0
3.319242456E0,-4.785645381E-2,5.312066078E-1,9.217152596E0
3.321367560E0,-3.876372576E-1,1.268195987E0,9.178867340E0
3.323492664E0,-5.024927258E-1,1.287338614E0,9.604789734E0
3.325617768E0,-3.349951655E-2,6.317051649E-1,1.015992451E1
3.327742924E0,7.226324677E-1,4.546363056E-1,1.005464077E1
3.329868029E0,6.556333899E-1,5.216353536E-1,9.499505997E0
3.331993133E0,7.130611539E-1,8.757730722E-1,9.413364410E0
3.334118237E0,9.571290575E-3,1.110269666E0,9.877572060E0
3.336243341E0,-1.004985496E-1,9.858429432E-1,1.011206818E1
3.338368445E0,-4.498506486E-1,8.853443861E-1,1.002114105E1
3.340493549E0,-1.292124242E-1,9.188438654E-1,9.997213364E0
3.342618706E0,6.317051649E-1,1.000199914E0,1.017906761E1
3.344743810E0,6.364908218E-1,7.417750359E-1,1.064327526E1
3.346868914E0,6.077769399E-1,3.062812984E-1,1.112183952E1
3.348994018E0,6.508477330E-1,6.843472719E-1,1.143290615E1
3.351119122E0,-2.871387079E-2,8.566305041E-1,1.113141060E1
3.353244227E0,-2.344966233E-1,1.105484009E0,1.011206818E1
3.355369383E0,-2.201396823E-1,1.004985452E0,9.456435204E0
3.357494487E0,2.536391914E-1,6.987041831E-1,9.265008926E0
3.359619591E0,-8.087740541E-1,1.330409408E0,9.829715729E0
3.361744695E0,-3.062812984E-1,1.306481123E0,1.076770210E1
3.363869799E0,1.244267747E-1,4.259224236E-1,1.097827053E1
3.365994904E0,3.254238665E-1,6.125625968E-1,1.077248764E1
3.368120008E0,2.153540403E-1,6.795616150E-1,1.042792130E1
3.370245164E0,1.531406492E-1,6.652047038E-1,1.030349445E1
3.372370268E0,-3.349951655E-2,1.282552958E0,1.015513897E1
3.374495372E0,-2.488535494E-1,1.603191137E0,1.001635551E1
3.376620477E0,-5.599204898E-1,7.657032609E-1,9.997213364E0
3.378745581E0,2.105683982E-1,1.378265858E0,9.475577354E0
3.380870685E0,4.450650215E-1,1.392622828E0,1.003549862E1
3.382995789E0,7.561319470E-1,5.455635786E-1,1.046620655E1
3.385120945E0,3.445664644E-1,8.374879360E-1,1.076770210E1
3.387246049E0,3.110669553E-1,5.647061467E-1,1.079162979E1
3.389371154E0,4.307080805E-2,5.694918036E-1,9.963713646E0
3.391496258E0,1.579262912E-1,1.138983607E0,9.341579437E0
3.393621362E0,-1.483550072E-1,6.987041831E-1,9.379864693E0
3.395746518E0,-2.057827413E-1,4.259224236E-1,9.365508080E0
3.397871622E0,-3.541377485E-1,1.454836130E0,9.236295700E0
3.399996727E0,-6.556333899E-1,1.593619823E0,9.930213928E0
3.402121831E0,-1.674975902E-1,9.427721500E-1,1.013121128E1
3.404246935E0,2.775674164E-1,8.039883971E-1,9.954142570E0
3.406372039E0,8.374879360E-1,8.566305041E-1,9.801001549E0
3.408497143E0,3.349951804E-1,1.091127157E0,9.576076508E0
3.410622299E0,1.531406492E-1,1.641476393E0,9.848857880E0
3.412747404E0,1.627119333E-1,8.853443861E-1,1.006421185E1
3.414872508E0,6.699903607E-1,3.637090325E-1,9.911071777E0
3.416997612E0,5.455635786E-1,9.906286001E-1,1.002592659E1
3.419122716E0,4.977070987E-1,9.427721500E-1,1.058106136E1
3.421247872E0,8.231309652E-1,6.556333899E-1,1.076770210E1
3.423372977E0,3.014956415E-1,4.546363056E-1,1.108355427E1
3.425498081E0,-3.828516230E-2,1.052842021E0,1.111705399E1
3.427623185E0,-4.259224236E-1,7.704889178E-1,1.045663452E1
3.429748289E0,-1.531406492E-1,8.374879360E-1,9.724431038E0
3.431873393E0,-5.168496966E-1,1.057627559E0,9.150154114E0
3.433998497E0,-7.657032609E-1,8.757730722E-1,9.087940216E0
3.436123602E0,-5.216353536E-1,9.475577474E-1,9.413364410E0
3.438248758E0,-3.158525825E-1,1.038485050E0,1.024128056E1
3.440373862E0,-1.722832322E-1,9.284151793E-1,1.073420238E1
3.442498966E0,6.556333899E-1,5.264210105E-1,1.081077290E1
3.444624070E0,1.129412293E0,5.455635786E-1,1.026520920E1
3.446749174E0,6.699903607E-1,1.186840057E0,9.968499184E0
3.448874279E0,7.178468257E-2,1.349551916E0,1.044706345E1
3.450999435E0,-2.871387079E-2,1.205982566E0,1.040399265E1
3.453124539E0,3.397808075E-1,8.757730722E-1,1.013599682E1
3.455249643E0,4.163511395E-1,1.014556766E0,9.896714211E0
3.457374747E0,-6.699903309E-2,1.009771109E0,1.013121128E1
3.459499852E0,1.962114573E-1,6.029912829E-1,1.036092186E1
3.461624956E0,7.178468257E-2,5.647061467E-1,1.078684425E1
3.463750112E0,2.536391914E-1,3.924229145E-1,1.057149029E1
3.465875216E0,9.571290575E-3,5.264210105E-1,1.003549862E1
3.468000320E0,5.742774606E-1,1.105484009E0,9.777072906E0
3.470125424E0,2.823530734E-1,6.987041831E-1,9.767501831E0
3.472250529E0,-1.196411327E-1,3.637090325E-1,9.533005714E0
3.474375633E0,-3.206382394E-1,1.292124271E0,9.480362892E0
3.476500737E0,1.962114573E-1,1.215553880E0,1.025563812E1
3.478625841E0,4.259224236E-1,8.566305041E-1,1.081077290E1
3.480750997E0,5.503492355E-1,8.135597110E-1,1.055713367E1
3.482876102E0,4.211367965E-1,9.427721500E-1,1.052363396E1
3.485001206E0,5.264210105E-1,1.091127157E0,1.016949654E1
3.487126310E0,-1.722832322E-1,1.445264935E0,9.829715729E0
3.489251414E0,-8.614161611E-2,1.627119422E0,1.006899738E1
3.491376518E0,3.302095234E-1,5.551348329E-1,9.992427826E0
3.493501674E0,1.579262912E-1,6.317051649E-1,9.638289452E0
3.495626779E0,-4.881358147E-1,1.378265858E0,9.887143135E0
3.497751883E0,-1.196411327E-1,1.052842021E0,1.025085258E1
3.499876987E0,9.571290575E-3,1.914258152E-1,1.049013424E1
3.502002091E0,3.637090325E-1,7.513462901E-1,9.982855797E0
3.504127195E0,1.914258152E-1,8.566305041E-1,1.000678444E1
3.506252352E0,6.652047038E-1,5.407779217E-1,9.533005714E0
3.508377456E0,-3.349951655E-2,1.024128079E0,9.547362328E0
3.510502560E0,-2.440679073E-1,1.320838094E0,1.023170948E1
3.512627664E0,-3.397808075E-1,5.264210105E-1,1.040399265E1
3.514752768E0,3.924229145E-1,1.038485050E0,1.035135078E1
3.516877872E0,3.349951655E-2,9.954141974E-1,1.063848972E1
3.519002977E0,5.024927258E-1,4.259224236E-1,1.080598736E1
3.521128081E0,4.833501875E-1,5.072783828E-1,1.099262714E1
3.523253237E0,1.244267747E-1,9.523434043E-1,1.068634605E1
3.525378341E0,-7.657032609E-1,1.344766378E0,1.020778179E1
3.527503445E0,-4.354937077E-1,1.603191137E0,9.901499748E0
3.529628549E0,6.221338734E-2,5.168496966E-1,9.891928673E0
3.531753654E0,-1.722832322E-1,3.158525825E-1,9.384650230E0
3.533878810E0,-6.221338734E-2,8.327022791E-1,9.623932838E0
3.536003914E0,2.871387303E-1,3.206382394E-1,1.047577763E1
3.538129018E0,1.866401732E-1,2.440679073E-1,1.075334454E1
3.540254122E0,4.642075896E-1,4.163511395E-1,1.066720295E1
3.542379227E0,5.934200287E-1,-4.785645381E-2,1.042792130E1
3.544504331E0,6.604190469E-1,1.052842021E0,9.724431038E0
3.546629487E0,8.135596663E-2,1.995614052E0,9.643074989E0
3.548754591E0,2.392822690E-2,1.172483087E0,1.001156998E1
3.550879695E0,4.307080805E-2,7.561319470E-1,9.600004196E0
3.553004799E0,4.642075896E-1,1.531406522E0,9.504291534E0
3.555129904E0,-2.536391914E-1,9.571290612E-1,1.011685371E1
3.557255008E0,7.704889178E-1,7.130611539E-1,9.868000984E0
3.559380112E0,1.004985496E-1,4.881358147E-1,9.939785004E0
3.561505216E0,-2.344966233E-1,6.508477330E-1,1.002114105E1
3.563630372E0,-2.201396823E-1,1.124626637E0,9.848857880E0
3.565755477E0,1.627119333E-1,1.100698471E0,9.844072342E0
3.567880581E0,-2.297109663E-1,1.028913736E0,9.351150513E0
3.570005685E0,-1.052841991E-1,8.087740541E-1,9.556933403E0
3.572130789E0,-4.067798555E-1,9.906286001E-1,9.868000984E0
3.574255945E0,-4.019941986E-1,1.363908887E0,1.023170948E1
3.576381049E0,-2.009970993E-1,7.992027402E-1,1.050449181E1
3.578506154E0,5.120640397E-1,2.488535494E-1,1.030349445E1
3.580631258E0,9.810572863E-1,8.279166222E-1,1.013121128E1
3.582756362E0,6.269195080E-1,1.119840980E0,1.009292603E1
3.584881466E0,2.727817893E-1,1.445264935E0,9.667003632E0
3.587006570E0,2.344966233E-1,1.339980721E0,9.619147301E0
3.589131727E0,-8.135596663E-2,5.934200287E-1,9.590433121E0
3.591256831E0,4.929214716E-1,8.422735929E-1,9.509077072E0
3.593381935E0,3.445664644E-1,9.906286001E-1,1.019820976E1
3.595507039E0,4.354937077E-1,4.929214716E-1,1.057627583E1
3.597632143E0,3.062812984E-1,6.987041831E-1,1.011685371E1
3.599757247E0,-4.785645381E-2,8.374879360E-1,9.906285286E0
3.601882404E0,-3.206382394E-1,9.427721500E-1,9.576076508E0
3.604007508E0,2.153540403E-1,1.497906923E0,9.217152596E0
3.606132612E0,7.178468257E-2,1.124626637E0,8.987442017E0
3.608257716E0,-4.307080805E-2,6.699903607E-1,9.016156197E0
3.610382820E0,-5.599204898E-1,9.954141974E-1,9.169296265E0
3.612507924E0,-6.221338734E-2,1.110269666E0,9.705288887E0
3.614633029E0,1.531406492E-1,6.221339107E-1,1.036570740E1
3.616758185E0,5.838487148E-1,3.397808075E-1,1.046142101E1
3.618883289E0,8.949156404E-1,2.201396823E-1,1.027478027E1
3.621008393E0,5.359922647E-1,1.579262912E-1,9.815358162E0
3.623133497E0,-2.871387079E-2,1.048056364E0,9.475577354E0
3.625258602E0,-5.072783828E-1,1.138983607E0,9.121439934E0
3.627383706E0,-4.019941986E-1,6.077769399E-1,8.896514893E0
3.629508862E0,-1.722832322E-1,1.325623751E0,8.666803360E0
3.631633966E0,-4.785645287E-3,1.296909928E0,9.049654961E0
3.633759070E0,9.092725813E-2,1.335195065E0,9.868000984E0
3.635884174E0,-1.674975902E-1,9.906286001E-1,1.071027374E1
3.638009279E0,5.264209956E-2,7.561319470E-1,1.049491978E1
3.640134383E0,1.866401732E-1,5.790630579E-1,9.681360245E0
3.642259539E0,2.440679073E-1,1.095912814E0,8.939585686E0
3.644384643E0,3.349951655E-2,1.186840057E0,9.164510727E0
3.646509747E0,-4.067798555E-1,6.364908218E-1,9.896714211E0
3.648634852E0,8.135596663E-2,1.148554921E0,9.877572060E0
3.650759956E0,-2.584248483E-1,1.344766378E0,1.017906761E1
3.652885060E0,9.571290575E-3,1.129412293E0,1.037527943E1
3.655010216E0,7.561319470E-1,8.805587292E-1,1.031785107E1
3.657135320E0,6.508477330E-1,2.440679073E-1,1.029870892E1
3.659260424E0,3.637090325E-1,4.737788737E-1,1.029870892E1
3.661385529E0,9.092725813E-2,1.052842021E0,9.734002113E0
3.663510633E0,-2.871387303E-1,1.048056364E0,9.092725754E0
3.665635737E0,-1.722832322E-1,1.138983607E0,8.963513374E0
3.667760841E0,-2.392822690E-2,8.279166222E-1,9.489934921E0
3.669885997E0,2.057827413E-1,8.901300430E-1,9.949356079E0
3.672011102E0,1.387837082E-1,1.411765337E0,1.012642574E1
3.674136206E0,-1.387837082E-1,7.274180651E-1,1.061456108E1
3.676261310E0,-2.871387079E-2,9.571290612E-1,1.038963604E1
3.678386414E0,1.818545163E-1,1.033699393E0,1.022213840E1
3.680511570E0,1.722832322E-1,2.967100143E-1,9.700503349E0
3.682636674E0,-1.435693540E-2,1.172483087E0,9.078369141E0
3.684761779E0,-3.302095234E-1,1.540977836E0,8.695517540E0
3.686886883E0,-6.029912829E-1,6.604190469E-1,9.020941734E0
3.689011987E0,-2.249253243E-1,8.662018180E-1,9.580862045E0
3.691137091E0,5.312066078E-1,1.244267821E0,9.743574142E0
3.693262195E0,3.541377485E-1,8.757730722E-1,9.872786522E0
3.695387299E0,1.770688742E-1,5.359922647E-1,9.796216011E0
3.697512456E0,5.982056856E-1,8.135597110E-1,9.408578873E0
3.699637560E0,-7.657032460E-2,8.614161611E-1,9.102297783E0
3.701762664E0,5.264209956E-2,1.172483087E0,9.164510727E0
3.703887768E0,-4.307080805E-2,1.000199914E0,9.044869423E0
3.706012872E0,4.115654826E-1,3.158525825E-1,8.939585686E0
3.708138029E0,5.120640397E-1,7.704889178E-1,8.791230202E0
3.710263133E0,1.004985496E-1,1.153340459E0,9.676574707E0
3.712388237E0,1.052841991E-1,1.440479279E0,1.051406288E1
3.714513341E0,3.349951655E-2,1.205982566E0,1.075334454E1
3.716638445E0,5.934200287E-1,4.211367965E-1,1.008814049E1
3.718763549E0,2.297109663E-1,9.619147182E-1,9.001798630E0
3.720888654E0,-3.014956415E-1,1.320838094E0,8.676374435E0
3.723013758E0,-2.584248483E-1,1.205982566E0,8.437092781E0
3.725138914E0,-1.866401732E-1,1.153340459E0,8.776873589E0
3.727264018E0,-3.254238665E-1,7.609176040E-1,9.293723106E0
3.729389122E0,2.153540403E-1,7.465606928E-1,9.341579437E0
3.731514227E0,6.843472719E-1,9.140582681E-1,9.619147301E0
3.733639331E0,6.699903607E-1,4.594219327E-1,9.963713646E0
3.735764487E0,6.364908218E-1,6.699903607E-1,9.882357597E0
3.737889591E0,4.354937077E-1,8.901300430E-1,1.008335495E1
3.740014695E0,3.206382394E-1,1.182054400E0,9.839286804E0
3.742139799E0,3.062812984E-1,1.043270707E0,9.379864693E0
3.744264904E0,1.531406492E-1,1.402194023E0,9.126225471E0
3.746390008E0,-4.354937077E-1,1.507478237E0,9.456435204E0
3.748515112E0,-3.589234054E-1,1.124626637E0,9.868000984E0
3.750640268E0,1.100698411E-1,1.268195987E0,9.839286804E0
3.752765320E0,6.699903309E-2,1.296909928E0,1.036570740E1
3.754890477E0,3.158525825E-1,2.967100143E-1,1.028435135E1
3.757015581E0,5.168496966E-1,2.871387303E-1,9.724431038E0
3.759140685E0,3.349951655E-2,1.119840980E0,9.303294182E0
3.761265789E0,-5.886343718E-1,1.359123230E0,9.073583603E0
3.763390945E0,-4.498506486E-1,1.531406522E0,8.585447311E0
3.765516049E0,-1.818545163E-1,1.000199914E0,8.853444099E0
3.767641154E0,2.392822653E-1,1.086341500E0,9.274580956E0
3.769766258E0,5.312066078E-1,1.349551916E0,1.051884842E1
3.771891362E0,6.652047038E-1,8.901300430E-1,1.104048347E1
3.774016466E0,-5.742774159E-2,8.805587292E-1,1.083948612E1
3.776141622E0,2.344966233E-1,9.619147182E-1,1.012642574E1
3.778266727E0,-1.100698411E-1,2.105683982E-1,9.580862045E0
3.780391831E0,1.866401732E-1,1.220339537E0,8.743373871E0
3.782516935E0,-9.571290761E-2,1.445264935E0,8.700303078E0
3.784642039E0,-3.158525825E-1,7.322037220E-1,9.250652313E0
3.786767195E0,-5.790630579E-1,1.244267821E0,8.920442581E0
3.788892299E0,-1.435693540E-2,1.631905079E0,8.724231720E0
3.791017404E0,3.732803464E-1,1.258624673E0,9.245866776E0
3.793142508E0,6.652047038E-1,1.182054400E0,9.805787086E0
3.795267612E0,5.934200287E-1,8.662018180E-1,9.949356079E0
3.797392716E0,2.488535494E-1,8.949156404E-1,9.772287369E0
3.799517820E0,2.297109663E-1,1.167697430E0,9.518648148E0
3.801642924E0,-7.465606928E-1,9.332008362E-1,8.906085968E0
3.803768081E0,4.785645287E-3,1.158126116E0,8.695517540E0
3.805893185E0,2.823530734E-1,3.876372576E-1,9.413364410E0
3.808018289E0,4.019941986E-1,8.662018180E-1,9.944570541E0
3.810143393E0,-1.292124242E-1,1.684547186E0,1.056670475E1
3.812268497E0,1.244267747E-1,1.392622828E0,1.101655579E1
3.814393602E0,3.158525825E-1,7.657032609E-1,1.053799057E1
3.816518758E0,4.642075896E-1,5.024927258E-1,9.509077072E0
3.818643862E0,9.571290575E-3,1.182054400E0,8.796015739E0
3.820768966E0,-1.866401732E-1,1.138983607E0,9.059226990E0
3.822894070E0,-3.684946895E-1,8.183453679E-1,8.882157326E0
3.825019174E0,-3.206382394E-1,8.901300430E-1,9.150154114E0
3.827144279E0,-4.259224236E-1,7.944171429E-1,9.777072906E0
3.829269383E0,5.168496966E-1,1.148554921E0,1.001156998E1
3.831394539E0,6.987041831E-1,6.891329288E-1,1.048534870E1
3.833519643E0,4.259224236E-1,8.183453679E-1,1.034656525E1
3.835644747E0,3.254238665E-1,1.239482164E0,1.024128056E1
3.837769852E0,-1.435693540E-2,7.848458290E-1,9.705288887E0
3.839894956E0,-3.780659735E-1,1.526620865E0,9.494720459E0
3.842020060E0,-5.168496966E-1,1.512263894E0,9.518648148E0
3.844145216E0,-1.914258115E-2,6.556333899E-1,9.365508080E0
3.846270320E0,-6.221338734E-2,8.709874153E-1,9.509077072E0
3.848395424E0,-4.689932466E-1,1.349551916E0,1.027478027E1
3.850520529E0,1.962114573E-1,1.076770186E0,1.103569794E1
3.852645633E0,3.541377485E-1,3.349951655E-2,1.082512951E1
3.854770737E0,8.470591903E-1,9.044869542E-1,9.700503349E0
3.856895893E0,1.483550072E-1,2.392822653E-1,9.236295700E0
3.859020945E0,1.292124242E-1,5.455635786E-1,9.059226990E0
3.861146102E0,-7.752745152E-1,1.473978758E0,9.446864128E0
3.863271206E0,-4.737788737E-1,1.387837172E0,9.408578873E0
3.865396310E0,-7.848458290E-1,6.412764788E-1,9.456435204E0
3.867521466E0,3.684946895E-1,7.896314859E-1,9.418149948E0
3.869646570E0,1.818545163E-1,1.282552958E0,9.901499748E0
3.871771674E0,6.317051649E-1,1.454836130E0,1.109312534E1
3.873896779E0,5.168496966E-1,6.269195080E-1,1.148076344E1
3.876021883E0,7.417750359E-1,3.445664644E-1,1.093041420E1
3.878146987E0,1.674975902E-1,1.057627559E0,9.734002113E0
3.880272143E0,1.627119333E-1,1.182054400E0,9.164510727E0
3.882397195E0,4.594219327E-1,6.412764788E-1,8.800801277E0
3.884522352E0,1.052841991E-1,5.694918036E-1,9.753145218E0
3.886647456E0,-4.833501875E-1,6.699903607E-1,1.071984577E1
3.888772560E0,-2.632105052E-1,8.470591903E-1,1.059063339E1
3.890897664E0,4.929214716E-1,4.259224236E-1,1.029870892E1
3.893022768E0,4.498506486E-1,4.785645306E-1,1.007856941E1
3.895147872E0,-3.684946895E-1,2.297109663E-1,1.070548820E1
3.897273029E0,-2.105683982E-1,2.105683982E-1,1.070070267E1
3.899398133E0,-5.264209956E-2,9.379864931E-1,9.891928673E0
3.901523185E0,-6.412764788E-1,1.450050473E0,9.399007797E0
3.903648341E0,9.571290575E-3,1.220339537E0,9.332008362E0
3.905773445E0,4.354937077E-1,5.072783828E-1,1.004985523E1
3.907898549E0,7.417750359E-1,9.906286001E-1,1.035135078E1
3.910023706E0,4.594219327E-1,1.402194023E0,1.080120182E1
3.912148810E0,2.871387079E-2,6.747759581E-1,1.115533924E1
3.914273914E0,-7.178468108E-1,5.599204898E-1,1.117448139E1
3.916399018E0,1.627119333E-1,6.556333899E-1,1.085862923E1
3.918524122E0,-1.052841991E-1,-7.657032460E-2,9.834501266E0
3.920649279E0,-4.259224236E-1,8.901300430E-1,9.399007797E0
3.922774383E0,-1.019342422E0,1.526620865E0,9.681360245E0
3.924899487E0,-6.269195080E-1,5.503492355E-1,1.039920712E1
3.927024591E0,-4.785645381E-2,7.752745152E-1,9.934999466E0
3.929149695E0,-3.828516230E-2,1.727617979E0,1.027478027E1
3.931274799E0,2.967100143E-1,1.033699393E0,1.105962658E1
3.933399904E0,3.062812984E-1,2.488535494E-1,1.119841003E1
3.935525060E0,4.881358147E-1,6.652047038E-1,1.088734341E1
3.937650164E0,-2.249253243E-1,4.163511395E-1,9.734002113E0
3.939775268E0,-5.120640397E-1,6.652047038E-1,8.958727837E0
3.941900372E0,-2.392822690E-2,1.229910851E0,9.250652313E0
3.944025477E0,5.216353536E-1,4.737788737E-1,1.018385315E1
3.946150581E0,2.632105052E-1,3.110669553E-1,1.028913784E1
3.948275737E0,-4.785645381E-2,1.785045743E0,1.013121128E1
3.950400841E0,-3.780659735E-1,1.531406522E0,1.078684425E1
3.952525945E0,5.742774159E-2,9.236295223E-1,1.082034397E1
3.954651049E0,5.024927258E-1,1.249053478E0,1.060977554E1
3.956776154E0,1.339980662E-1,5.407779217E-1,1.066720295E1
3.958901258E0,-1.531406492E-1,8.566305041E-1,9.796216011E0
3.961026414E0,-7.082754970E-1,1.009771109E0,9.288937569E0
3.963151518E0,-7.513462901E-1,9.140582681E-1,9.298508644E0
3.965276622E0,-4.259224236E-1,1.722832322E-1,9.824930191E0
3.967401727E0,1.483550072E-1,2.967100143E-1,1.023170948E1
3.969526831E0,-6.699903309E-2,1.048056364E0,1.046620655E1
3.971651935E0,6.221338734E-2,1.014556766E0,1.073898792E1
3.973777039E0,5.790630579E-1,6.652047038E-1,1.075334454E1
3.975902195E0,3.014956415E-1,7.322037220E-1,1.027956581E1
3.978027299E0,5.551348329E-1,1.210768223E0,9.963713646E0
3.980152404E0,8.709874153E-1,6.795616150E-1,9.992427826E0
3.982277508E0,9.092726111E-1,8.949156404E-1,9.753145218E0
3.984402612E0,1.100698411E-1,8.662018180E-1,1.001156998E1
3.986527768E0,-1.674975902E-1,4.498506486E-1,1.076770210E1
3.988652872E0,-6.699903309E-2,8.470591903E-1,1.071506023E1
3.990777977E0,9.092725813E-2,1.234696507E0,1.103569794E1
3.992903081E0,2.344966233E-1,6.460621357E-1,1.160519028E1
3.995028185E0,2.344966233E-1,3.589234054E-1,1.097348499E1
3.997153289E0,8.135596663E-2,5.934200287E-1,1.008335495E1
3.999278393E0,-8.518448472E-1,1.038485050E0,9.485149384E0
4.001403549E0,-6.556333899E-1,9.379864931E-1,9.284152031E0
4.003528654E0,-2.249253243E-1,7.704889178E-1,9.059226990E0
4.005653758E0,9.571290761E-2,4.785645306E-1,9.552147865E0
4.007778862E0,9.379864931E-1,3.637090325E-1,1.033699417E1
4.009903966E0,5.312066078E-1,8.087740541E-1,1.122233772E1
4.012029070E0,4.211367965E-1,9.188438654E-1,1.149990559E1
4.014154174E0,4.498506486E-1,5.934200287E-1,1.119362450E1
4.016279331E0,6.939185858E-1,6.077769399E-1,1.073898792E1
4.018404435E0,3.732803464E-1,4.689932466E-1,9.944570541E0
4.020529539E0,-3.780659735E-1,1.229910851E0,9.236295700E0
4.022654643E0,-5.407779217E-1,1.569691658E0,9.738788605E0
4.024779747E0,-4.307080805E-1,7.034898400E-1,9.815358162E0
4.026904852E0,-3.014956415E-1,7.034898400E-1,9.719645500E0
4.029030008E0,-1.674975902E-1,1.100698471E0,1.015035343E1
4.031155112E0,3.349951655E-2,5.982056856E-1,1.071984577E1
4.033280216E0,5.359922647E-1,6.795616150E-1,1.028913784E1
4.035405372E0,3.014956415E-1,4.546363056E-1,1.032742214E1
4.037530424E0,9.092725813E-2,4.642075896E-1,1.026999474E1
4.039655529E0,-1.579262912E-1,8.374879360E-1,9.657432556E0
4.041780685E0,-1.531406492E-1,1.086341500E0,9.556933403E0
4.043905789E0,1.770688742E-1,9.619147182E-1,9.729216576E0
4.046030893E0,2.344966233E-1,6.843472719E-1,9.810572624E0
4.048155997E0,3.637090325E-1,1.081555843E0,1.045663452E1
4.050281102E0,-1.339980662E-1,1.244267821E0,1.147597694E1
4.052406206E0,2.153540403E-1,4.546363056E-1,1.174397373E1
4.054531362E0,7.226324677E-1,3.493520916E-1,1.053799057E1
4.056656466E0,4.450650215E-1,1.339980662E-1,9.647860527E0
4.058781570E0,1.531406492E-1,8.183453679E-1,9.585647583E0
4.060906674E0,-1.579262912E-1,9.332008362E-1,9.585647583E0
4.063031779E0,-3.349951655E-2,1.091127157E0,9.729216576E0
4.065156883E0,1.387837082E-1,6.173482537E-1,9.542576790E0
4.067282039E0,5.407779217E-1,4.929214716E-1,9.734002113E0
4.069407143E0,4.833501875E-1,9.092726111E-1,1.025085258E1
4.071532247E0,2.009970993E-1,9.044869542E-1,1.081555843E1
4.073657352E0,4.019941986E-1,8.135597110E-1,1.106441212E1
4.075782456E0,-3.876372576E-1,2.775674164E-1,1.083948612E1
4.077907560E0,-2.488535494E-1,6.077769399E-1,9.896714211E0
4.080032716E0,-4.163511395E-1,8.997012973E-1,9.604789734E0
4.082157820E0,-2.775674164E-1,9.667003751E-1,9.284152031E0
4.084282924E0,-3.254238665E-1,1.052842021E0,9.394221306E0
4.086408029E0,-4.067798555E-1,1.048056364E0,1.013121128E1
4.088533133E0,-4.785645287E-3,9.475577474E-1,1.042313576E1
4.090658237E0,7.657032609E-1,8.422735929E-1,1.042792130E1
4.092783393E0,7.657032609E-1,7.082754970E-1,1.065284634E1
4.094908497E0,5.790630579E-1,2.775674164E-1,1.037527943E1
4.097033602E0,5.551348329E-1,2.871387303E-1,1.006899738E1
4.099158706E0,-8.135596663E-2,2.297109663E-1,9.623932838E0
4.101283810E0,-2.009970993E-1,1.052842021E0,9.236295700E0
4.103408914E0,-4.498506486E-1,7.752745152E-1,9.260223389E0
4.105534070E0,5.407779217E-1,5.742774606E-1,9.379864693E0
4.107659174E0,3.493520916E-1,4.785645306E-1,9.528220177E0
4.109784279E0,4.498506486E-1,1.134197950E0,1.026042366E1
4.111909383E0,-3.876372576E-1,1.292124271E0,1.101177025E1
4.114034487E0,3.876372576E-1,1.095912814E0,1.095434189E1
4.116159591E0,9.571290761E-2,5.790630579E-1,1.028913784E1
4.118284695E0,1.339980662E-1,4.019941986E-1,9.695717812E0
4.120409852E0,-3.828516230E-2,8.518448472E-1,8.752944946E0
4.122534956E0,-1.914258152E-1,1.024128079E0,9.001798630E0
4.124660060E0,-2.727817893E-1,8.614161611E-1,9.279366493E0
4.126785164E0,3.254238665E-1,6.077769399E-1,9.954142570E0
4.128910268E0,1.483550072E-1,5.742774606E-1,1.025563812E1
4.131035424E0,2.727817893E-1,1.162911773E0,1.024128056E1
4.133160529E0,2.249253243E-1,9.762716293E-1,1.052841949E1
4.135285633E0,3.493520916E-1,8.614161611E-1,1.002592659E1
4.137410737E0,-5.647061467E-1,4.737788737E-1,9.882357597E0
4.139535841E0,-1.483550072E-1,1.004985452E0,9.982855797E0
4.141660945E0,3.349951655E-2,8.374879360E-1,9.690931320E0
4.143786049E0,4.977070987E-1,5.694918036E-1,9.533005714E0
4.145911154E0,8.135596663E-2,6.604190469E-1,9.791430473E0
4.148036310E0,1.244267747E-1,1.038485050E0,1.054277611E1
4.150161414E0,1.531406492E-1,8.470591903E-1,1.088734341E1
4.152286518E0,2.775674164E-1,1.162911773E0,1.087777138E1
4.154411622E0,-1.148554832E-1,6.652047038E-1,1.094477081E1
4.156536727E0,-1.339980662E-1,2.775674164E-1,1.038006496E1
4.158661883E0,9.571290575E-3,4.354937077E-1,9.566504478E0
4.160786987E0,-8.135596663E-2,6.221339107E-1,8.982656479E0
4.162912091E0,-8.566305041E-1,8.374879360E-1,8.891729355E0
4.165037195E0,-2.584248483E-1,1.153340459E0,9.375079155E0
4.167162299E0,1.292124242E-1,5.551348329E-1,9.633503914E0
4.169287404E0,6.460621357E-1,6.604190469E-1,9.446864128E0
4.171412560E0,3.397808075E-1,1.167697430E0,1.015992451E1
4.173537664E0,2.679961324E-1,9.810572863E-1,1.089212894E1
4.175662768E0,4.115654826E-1,5.264210105E-1,1.066720295E1
4.177787872E0,7.226324677E-1,4.929214716E-1,9.805787086E0
4.179912977E0,3.397808075E-1,4.785645381E-2,9.188439369E0
4.182038081E0,-1.914258115E-2,9.954141974E-1,8.595019341E0
4.184163185E0,-3.589234054E-1,9.188438654E-1,9.011369705E0
4.186288341E0,-2.584248483E-1,4.450650215E-1,9.288937569E0
4.188413445E0,-9.810572863E-1,3.972085714E-1,9.413364410E0
4.190538549E0,1.483550072E-1,1.004985452E0,9.360722542E0
4.192663654E0,-1.627119333E-1,8.709874153E-1,1.007856941E1
4.194788758E0,4.546363056E-1,1.024128079E0,1.068634605E1
4.196913862E0,-4.594219327E-1,7.848458290E-1,1.025085258E1
4.199039018E0,-4.546363056E-1,7.226324677E-1,9.609575272E0
4.201164122E0,-8.949156404E-1,1.258624673E0,8.762516975E0
4.203289227E0,-4.259224236E-1,1.119840980E0,8.901300430E0
4.205414331E0,9.092725813E-2,7.178468108E-1,9.131011009E0
4.207539435E0,2.536391914E-1,7.561319470E-1,9.772287369E0
4.209664539E0,6.077769399E-1,4.546363056E-1,1.073420238E1
4.211789695E0,6.412764788E-1,7.704889178E-1,1.084427261E1
4.213914799E0,5.407779217E-1,1.383051515E0,1.078684425E1
4.216039904E0,-4.785645381E-2,7.226324677E-1,1.081077290E1
4.218165008E0,4.402793646E-1,5.982056856E-1,9.968499184E0
4.220290112E0,-5.264209956E-2,6.891329288E-1,9.437292099E0
4.222415216E0,-2.344966233E-1,1.397408366E0,9.087940216E0
4.224540372E0,-8.949156404E-1,1.215553880E0,9.360722542E0
4.226665477E0,-2.727817893E-1,7.465606928E-1,9.489934921E0
4.228790581E0,-1.914258115E-2,5.982056856E-1,9.480362892E0
4.230915685E0,9.571290761E-2,4.211367965E-1,9.973284721E0
4.233040789E0,5.312066078E-1,7.752745152E-1,9.997213364E0
4.235165893E0,3.828516304E-1,5.790630579E-1,9.968499184E0
4.237291049E0,7.178468257E-2,4.259224236E-1,9.767501831E0
4.239416154E0,7.513462901E-1,8.374879360E-1,9.915857315E0
4.241541258E0,8.662018180E-1,3.158525825E-1,9.676574707E0
4.243666362E0,8.279166222E-1,1.196411371E0,8.863015175E0
4.245791466E0,1.148554832E-1,1.507478237E0,9.126225471E0
4.247916570E0,-9.571290761E-2,8.566305041E-1,9.968499184E0
4.250041727E0,3.828516230E-2,7.609176040E-1,1.044706345E1
4.252166831E0,-5.455635786E-1,8.662018180E-1,1.083948612E1
4.254291935E0,2.009970993E-1,6.604190469E-1,1.065284634E1
4.256417039E0,1.387837082E-1,2.536391914E-1,1.012642574E1
4.258542143E0,3.254238665E-1,5.647061467E-1,9.757930756E0
4.260667247E0,-5.886343718E-1,3.302095234E-1,9.384650230E0
4.262792404E0,-1.722832322E-1,7.513462901E-1,8.867800713E0
4.264917508E0,-6.795616150E-1,1.253839016E0,8.599804878E0
4.267042612E0,-3.493520916E-1,1.004985452E0,8.762516975E0
4.269167716E0,4.785645287E-3,5.742774159E-2,9.145368576E0
4.271292820E0,7.513462901E-1,9.092726111E-1,9.365508080E0
4.273417924E0,4.642075896E-1,1.383051515E0,1.063370419E1
4.275543029E0,4.785645306E-1,1.014556766E0,1.111226845E1
4.277668185E0,5.503492355E-1,8.039883971E-1,1.028435135E1
4.279793289E0,8.566305041E-1,6.652047038E-1,9.193224907E0
4.281918393E0,3.349951804E-1,7.609176040E-1,9.092725754E0
4.284043497E0,-2.105683982E-1,1.569691658E0,9.384650230E0
4.286168602E0,-9.619147182E-1,1.540977836E0,9.963713646E0
4.288293706E0,-3.254238665E-1,9.954141974E-1,1.015513897E1
4.290418862E0,-2.440679073E-1,4.833501875E-1,9.556933403E0
4.292543966E0,-1.148554832E-1,1.105484009E0,9.777072906E0
4.294669070E0,-1.483550072E-1,7.369893789E-1,1.052841949E1
4.296794174E0,8.949156404E-1,3.349951655E-2,1.036092186E1
4.298919279E0,-1.914258152E-1,2.775674164E-1,9.958928108E0
4.301044435E0,-6.173482537E-1,6.029912829E-1,9.164510727E0
4.303169539E0,8.374879360E-1,6.412764788E-1,8.556734085E0
4.305294643E0,8.949156404E-1,9.379864931E-1,8.781659126E0
4.307419747E0,3.014956415E-1,1.344766378E0,9.183652878E0
4.309544852E0,4.785645381E-2,8.997012973E-1,9.499505997E0
4.311669956E0,2.344966233E-1,1.210768223E0,1.017906761E1
4.313795112E0,2.153540403E-1,1.464407444E0,1.057149029E1
4.315920216E0,8.614161611E-2,9.858429432E-1,1.076770210E1
4.318045320E0,1.435693651E-1,7.465606928E-1,1.048534870E1
4.320170424E0,5.694918036E-1,6.412764788E-1,9.791430473E0
4.322295529E0,-1.387837082E-1,7.034898400E-1,9.145368576E0
4.324420633E0,-4.689932466E-1,1.172483087E0,9.011369705E0
4.326545737E0,-1.052842021E0,1.182054400E0,9.121439934E0
4.328670893E0,-3.349951804E-1,9.236295223E-1,9.169296265E0
4.330795997E0,2.871387079E-2,4.881358147E-1,9.394221306E0
4.332921102E0,1.914258152E-1,1.033699393E0,1.021735287E1
4.335046206E0,2.871387079E-2,8.183453679E-1,1.083948612E1
4.337171310E0,3.684946895E-1,3.397808075E-1,1.074855900E1
4.339296466E0,9.092725813E-2,4.402793646E-1,1.025563812E1
4.341421570E0,4.785645287E-3,3.445664644E-1,9.858428955E0
4.343546674E0,-4.785645381E-2,1.722832322E-1,9.083154678E0
4.345671779E0,2.679961324E-1,1.052842021E0,9.169296265E0
4.347796883E0,-4.785645381E-2,1.196411371E0,9.609575272E0
4.349921987E0,-6.699903309E-2,9.714859724E-1,9.939785004E0
4.352047091E0,4.785645287E-3,1.000199914E0,1.015035343E1
4.354172195E0,2.249253243E-1,1.430907965E0,1.037049294E1
4.356297352E0,2.919243574E-1,1.268195987E0,1.043749237E1
4.358422456E0,3.924229145E-1,8.231309652E-1,1.007378292E1
4.360547560E0,-2.057827413E-1,9.188438654E-1,1.001635551E1
4.362672664E0,-6.029912829E-1,6.604190469E-1,9.714859962E0
4.364797768E0,-2.297109663E-1,6.029912829E-1,9.293723106E0
4.366922924E0,4.785645381E-2,5.168496966E-1,9.092725754E0
4.369048029E0,1.579262912E-1,5.694918036E-1,9.614361763E0
4.371173133E0,3.541377485E-1,6.173482537E-1,1.042792130E1
4.373298237E0,3.158525825E-1,4.689932466E-1,1.092562866E1
4.375423341E0,1.818545163E-1,1.330409408E0,1.125105190E1
4.377548445E0,3.349951804E-1,1.210768223E0,1.088255692E1
4.379673602E0,5.790630579E-1,8.039883971E-1,1.037527943E1
4.381798706E0,3.206382394E-1,6.029912829E-1,1.000678444E1
4.383923810E0,1.196411327E-1,1.067198873E0,9.245866776E0
4.386048914E0,3.062812984E-1,1.205982566E0,8.939585686E0
4.388174018E0,-1.004985496E-1,1.110269666E0,9.284152031E0
4.390299122E0,6.699903309E-2,1.057627559E0,9.753145218E0
