"Time (s)","Gyroscope x (rad/s)","Gyroscope y (rad/s)","Gyroscope z (rad/s)"
2.065032000E-2,5.345067009E-3,-1.649334840E-2,1.374445739E-3
2.277542400E-2,9.010255337E-3,-1.527161989E-2,2.596175298E-3
2.490052900E-2,1.389717404E-2,-1.282816008E-2,2.596175298E-3
2.702563300E-2,9.010255337E-3,3.054323839E-3,7.483093534E-3
2.915073700E-2,1.679878100E-3,1.038470119E-2,5.039634649E-3
3.127589300E-2,4.581485991E-4,1.282816008E-2,5.039634649E-3
3.340099700E-2,-3.207040019E-3,1.893680729E-2,7.483093534E-3
3.552610200E-2,-3.207040019E-3,1.649334840E-2,5.039634649E-3
3.765120600E-2,5.345067009E-3,7.941242307E-3,5.039634649E-3
3.977631000E-2,1.389717404E-2,1.832594397E-3,3.817904973E-3
4.190141400E-2,1.389717404E-2,-1.832594397E-3,1.374445739E-3
4.402651800E-2,5.345067009E-3,5.497782957E-3,-1.069013379E-3
4.615167400E-2,4.581485991E-4,1.649334840E-2,3.817904973E-3
4.827677900E-2,5.345067009E-3,2.138026804E-2,5.039634649E-3
5.040188300E-2,2.901607659E-3,1.527161989E-2,3.817904973E-3
5.252698700E-2,-6.872228812E-3,1.527161989E-2,6.261364091E-3
5.465209100E-2,-1.420260593E-2,2.015853859E-2,5.039634649E-3
5.677719500E-2,-1.053741761E-2,1.282816008E-2,5.039634649E-3
5.890235200E-2,2.901607659E-3,4.276053514E-3,6.261364091E-3
6.102745600E-2,1.389717404E-2,-5.497782957E-3,5.039634649E-3
6.315256000E-2,1.145371422E-2,-1.832594397E-3,5.039634649E-3
6.527766400E-2,5.345067009E-3,1.160643063E-2,6.261364091E-3
6.740276800E-2,-3.207040019E-3,2.260199748E-2,7.483093534E-3
6.952787200E-2,-1.053741761E-2,2.504545636E-2,9.926552884E-3
7.165302900E-2,-1.420260593E-2,2.626718581E-2,8.704823442E-3
7.377813300E-2,-8.093958721E-3,2.260199748E-2,8.704823442E-3
7.590323700E-2,7.788525894E-3,1.038470119E-2,7.483093534E-3
7.802834100E-2,1.756236330E-2,1.832594397E-3,5.039634649E-3
8.015344500E-2,1.389717404E-2,4.276053514E-3,5.039634649E-3
8.227854900E-2,6.566796452E-3,9.162971750E-3,2.596175298E-3
8.440365400E-2,1.679878100E-3,1.771507785E-2,7.483093534E-3
8.652881000E-2,4.123337101E-3,1.771507785E-2,9.926552884E-3
8.865391400E-2,7.788525894E-3,7.941242307E-3,9.926552884E-3
9.077901800E-2,1.679878100E-3,6.108647794E-4,7.483093534E-3
9.290412200E-2,-6.872228812E-3,7.941242307E-3,7.483093534E-3
9.502922700E-2,-9.315688163E-3,1.282816008E-2,8.704823442E-3
9.715433100E-2,2.901607659E-3,6.108647794E-4,8.704823442E-3
9.927948700E-2,1.511890348E-2,-9.162971750E-3,5.039634649E-3
1.014045910E-1,1.756236330E-2,1.832594397E-3,6.261364091E-3
1.035296950E-1,2.000582218E-2,2.626718581E-2,1.359174121E-2
1.056547990E-1,4.444041103E-2,3.970621154E-2,1.725693047E-2
1.077799040E-1,5.177079141E-2,1.527161989E-2,1.237001177E-2
1.099050080E-1,3.344484791E-2,1.832594397E-3,1.114828233E-2
1.120301640E-1,1.023198478E-2,9.162971750E-3,8.704823442E-3
1.141552680E-1,-1.985310577E-3,5.497782957E-3,6.261364091E-3
1.162803720E-1,4.581485991E-4,-6.108647794E-4,1.527161949E-4
1.184054770E-1,6.566796452E-3,-4.276053514E-3,1.374445739E-3
1.205305810E-1,9.010255337E-3,-5.497782957E-3,2.596175298E-3
1.226556850E-1,7.788525894E-3,-6.108647794E-4,2.596175298E-3
1.247807890E-1,7.788525894E-3,-6.108647794E-4,2.596175298E-3
1.269059450E-1,-1.985310577E-3,4.276053514E-3,5.039634649E-3
1.290310490E-1,-1.786779426E-2,6.719512399E-3,2.596175298E-3
1.311561540E-1,-1.542433538E-2,-4.276053514E-3,2.596175298E-3
1.332812580E-1,-1.985310577E-3,-1.404988952E-2,3.817904973E-3
1.354063620E-1,1.145371422E-2,-2.504545636E-2,3.817904973E-3
1.375314660E-1,1.389717404E-2,-2.748891525E-2,1.374445739E-3
1.396565700E-1,6.566796452E-3,-2.015853859E-2,3.817904973E-3
1.417817270E-1,-5.650499370E-3,-5.497782957E-3,2.596175298E-3
1.439068310E-1,-1.175914705E-2,3.054323839E-3,5.039634649E-3
1.460319350E-1,-5.650499370E-3,-1.832594397E-3,7.483093534E-3
1.481570390E-1,-1.985310577E-3,-9.162971750E-3,5.039634649E-3
1.502821430E-1,-7.635809598E-4,-1.282816008E-2,3.817904973E-3
1.524072470E-1,4.123337101E-3,-1.771507785E-2,3.817904973E-3
1.545324040E-1,1.267544460E-2,-2.504545636E-2,-1.069013379E-3
1.566575080E-1,1.145371422E-2,-2.260199748E-2,-1.069013379E-3
1.587826120E-1,1.023198478E-2,-1.527161989E-2,3.817904973E-3
1.609077160E-1,6.566796452E-3,-6.719512399E-3,7.483093534E-3
1.630328200E-1,4.123337101E-3,-1.038470119E-2,6.261364091E-3
1.651579240E-1,-7.635809598E-4,-1.649334840E-2,2.596175298E-3
1.672830810E-1,-1.053741761E-2,-1.282816008E-2,3.817904973E-3
1.694081850E-1,-1.175914705E-2,-6.719512399E-3,2.596175298E-3
1.715332890E-1,-4.428769462E-3,-1.282816008E-2,6.261364091E-3
1.736583930E-1,9.010255337E-3,-2.748891525E-2,2.596175298E-3
1.757834970E-1,1.145371422E-2,-2.871064469E-2,1.527161949E-4
1.779086020E-1,6.566796452E-3,-1.771507785E-2,3.817904973E-3
1.800337580E-1,5.345067009E-3,-9.162971750E-3,5.039634649E-3
1.821588620E-1,1.145371422E-2,-1.527161989E-2,3.817904973E-3
1.842839660E-1,1.145371422E-2,-1.771507785E-2,6.261364091E-3
1.864090700E-1,2.901607659E-3,-1.404988952E-2,5.039634649E-3
1.885341740E-1,4.581485991E-4,-1.282816008E-2,3.817904973E-3
1.906592790E-1,7.788525894E-3,-2.015853859E-2,1.374445739E-3
1.927843830E-1,1.634063199E-2,-2.626718581E-2,-2.290742937E-3
1.949095390E-1,1.267544460E-2,-1.893680729E-2,-2.290742937E-3
1.970346430E-1,9.010255337E-3,-1.832594397E-3,1.374445739E-3
1.991597470E-1,1.267544460E-2,-4.276053514E-3,1.527161949E-4
2.012848520E-1,1.023198478E-2,-7.941242307E-3,1.374445739E-3
2.034099560E-1,-5.650499370E-3,3.054323839E-3,1.527161949E-4
2.055350600E-1,-1.420260593E-2,6.108647794E-4,-2.290742937E-3
2.076601640E-1,-3.207040019E-3,-7.941242307E-3,1.374445739E-3
2.097853200E-1,1.511890348E-2,-2.260199748E-2,1.527161949E-4
2.119104240E-1,2.122755162E-2,-2.871064469E-2,-1.069013379E-3
2.140355290E-1,1.389717404E-2,-2.382372692E-2,1.527161949E-4
2.161606330E-1,9.010255337E-3,-1.282816008E-2,-1.069013379E-3
2.182857370E-1,4.123337101E-3,-1.832594397E-3,1.527161949E-4
2.204108410E-1,4.581485991E-4,3.054323839E-3,2.596175298E-3
2.225359970E-1,-4.428769462E-3,1.160643063E-2,2.596175298E-3
2.246611020E-1,-7.635809598E-4,6.719512399E-3,2.596175298E-3
2.267862060E-1,1.389717404E-2,-5.497782957E-3,-1.069013379E-3
2.289113100E-1,2.122755162E-2,-9.162971750E-3,-2.290742937E-3
2.310364140E-1,1.756236330E-2,-4.276053514E-3,-4.734201822E-3
2.331615180E-1,1.267544460E-2,4.276053514E-3,-5.955931731E-3
2.352866740E-1,6.566796452E-3,1.282816008E-2,-1.069013379E-3
2.374117790E-1,4.123337101E-3,1.527161989E-2,1.374445739E-3
2.395368830E-1,5.345067009E-3,1.038470119E-2,1.527161949E-4
2.416619870E-1,9.010255337E-3,4.276053514E-3,1.527161949E-4
2.437870910E-1,9.010255337E-3,-6.108647794E-4,1.527161949E-4
2.459121950E-1,7.788525894E-3,1.832594397E-3,1.374445739E-3
2.480373520E-1,1.679878100E-3,5.497782957E-3,2.596175298E-3
2.501624560E-1,9.010255337E-3,-1.832594397E-3,-1.069013379E-3
2.522875600E-1,1.756236330E-2,-9.162971750E-3,-2.290742937E-3
2.544126640E-1,1.511890348E-2,1.832594397E-3,1.527161949E-4
2.565377680E-1,9.010255337E-3,1.527161989E-2,1.374445739E-3
2.586628720E-1,7.788525894E-3,1.527161989E-2,1.374445739E-3
2.607879770E-1,7.788525894E-3,1.282816008E-2,2.596175298E-3
2.629131330E-1,9.010255337E-3,1.282816008E-2,1.374445739E-3
2.650382370E-1,1.267544460E-2,1.160643063E-2,1.374445739E-3
2.671633410E-1,1.389717404E-2,6.108647794E-4,-3.512472380E-3
2.692884450E-1,1.511890348E-2,6.108647794E-4,-4.734201822E-3
2.714135490E-1,9.010255337E-3,1.038470119E-2,-1.069013379E-3
2.735386540E-1,7.788525894E-3,1.404988952E-2,1.527161949E-4
2.756637580E-1,6.566796452E-3,1.038470119E-2,-1.069013379E-3
2.777889140E-1,4.581485991E-4,1.160643063E-2,1.527161949E-4
2.799140180E-1,-1.053741761E-2,1.893680729E-2,1.374445739E-3
2.820391220E-1,-9.315688163E-3,1.038470119E-2,1.527161949E-4
2.841641740E-1,4.123337101E-3,-6.108647794E-4,1.374445739E-3
2.862893310E-1,1.756236330E-2,-1.282816008E-2,1.374445739E-3
2.884144350E-1,2.122755162E-2,-1.649334840E-2,1.374445739E-3
2.905395910E-1,1.267544460E-2,-1.038470119E-2,1.374445739E-3
2.926646950E-1,1.679878100E-3,3.054323839E-3,-1.069013379E-3
2.947897990E-1,-8.093958721E-3,1.527161989E-2,2.596175298E-3
2.969149040E-1,-1.298087649E-2,1.893680729E-2,5.039634649E-3
2.990400080E-1,-1.298087649E-2,7.941242307E-3,1.374445739E-3
3.011651120E-1,-1.985310577E-3,6.108647794E-4,2.596175298E-3
3.032902680E-1,1.145371422E-2,-7.941242307E-3,-1.069013379E-3
3.054153720E-1,1.389717404E-2,-1.282816008E-2,-2.290742937E-3
3.075404770E-1,1.145371422E-2,-1.404988952E-2,-1.069013379E-3
3.096655810E-1,6.566796452E-3,-4.276053514E-3,1.374445739E-3
3.117906850E-1,-3.207040019E-3,6.108647794E-4,2.596175298E-3
3.139157370E-1,-8.093958721E-3,-6.108647794E-4,2.596175298E-3
3.160408930E-1,-9.315688163E-3,-4.276053514E-3,1.374445739E-3
3.181660490E-1,-9.315688163E-3,-1.038470119E-2,1.527161949E-4
3.202911540E-1,-3.207040019E-3,-1.404988952E-2,1.374445739E-3
3.224162580E-1,2.901607659E-3,-1.771507785E-2,2.596175298E-3
3.245413620E-1,7.788525894E-3,-2.626718581E-2,1.527161949E-4
3.266664660E-1,7.788525894E-3,-2.260199748E-2,1.374445739E-3
3.287915700E-1,-7.635809598E-4,-1.038470119E-2,2.596175298E-3
3.309166740E-1,-6.872228812E-3,-1.832594397E-3,1.374445739E-3
3.330418310E-1,-1.985310577E-3,-1.160643063E-2,2.596175298E-3
3.351669350E-1,-4.428769462E-3,-9.162971750E-3,3.817904973E-3
3.372920390E-1,-1.175914705E-2,-6.719512399E-3,3.817904973E-3
3.394171430E-1,-8.093958721E-3,-1.282816008E-2,1.374445739E-3
3.415422470E-1,2.901607659E-3,-2.138026804E-2,-1.069013379E-3
3.436674040E-1,1.267544460E-2,-3.237583488E-2,-3.512472380E-3
3.457925080E-1,6.566796452E-3,-1.771507785E-2,1.374445739E-3
3.479176120E-1,-5.650499370E-3,-5.497782957E-3,1.374445739E-3
3.500427160E-1,-6.872228812E-3,-1.404988952E-2,1.527161949E-4
3.521678200E-1,-1.053741761E-2,-1.404988952E-2,1.374445739E-3
3.542929240E-1,-2.153298259E-2,-4.276053514E-3,1.374445739E-3
3.564180290E-1,-2.519817278E-2,-7.941242307E-3,2.596175298E-3
3.585431850E-1,-6.872228812E-3,-2.015853859E-2,2.596175298E-3
3.606682890E-1,7.788525894E-3,-2.748891525E-2,1.374445739E-3
3.627933930E-1,1.145371422E-2,-3.115410358E-2,2.596175298E-3
3.649184970E-1,1.679878100E-3,-2.382372692E-2,2.596175298E-3
3.670436020E-1,-8.093958721E-3,-1.527161989E-2,1.374445739E-3
3.691687060E-1,-1.298087649E-2,-9.162971750E-3,1.374445739E-3
3.712938620E-1,-1.542433538E-2,-6.108647794E-4,5.039634649E-3
3.734189660E-1,-1.908952370E-2,-3.054323839E-3,2.596175298E-3
3.755440700E-1,-9.315688163E-3,-1.038470119E-2,2.596175298E-3
3.776692270E-1,7.788525894E-3,-1.771507785E-2,2.596175298E-3
3.797942790E-1,1.267544460E-2,-2.138026804E-2,-1.069013379E-3
3.819193830E-1,1.023198478E-2,-2.015853859E-2,-2.290742937E-3
3.840445390E-1,9.010255337E-3,-1.404988952E-2,2.596175298E-3
3.861696430E-1,1.679878100E-3,-5.497782957E-3,1.374445739E-3
3.882947470E-1,-3.207040019E-3,-9.162971750E-3,5.039634649E-3
3.904198520E-1,-1.985310577E-3,-1.282816008E-2,1.374445739E-3
3.925449560E-1,-4.428769462E-3,-1.527161989E-2,2.596175298E-3
3.946700600E-1,-4.428769462E-3,-6.719512399E-3,6.261364091E-3
3.967951640E-1,4.581485991E-4,-1.038470119E-2,7.483093534E-3
3.989202680E-1,1.679878100E-3,-2.015853859E-2,1.374445739E-3
4.010454240E-1,2.901607659E-3,-1.649334840E-2,2.596175298E-3
4.031705290E-1,1.679878100E-3,-7.941242307E-3,5.039634649E-3
4.052956330E-1,1.679878100E-3,-6.719512399E-3,5.039634649E-3
4.074207370E-1,5.345067009E-3,-6.719512399E-3,3.817904973E-3
4.095458410E-1,4.123337101E-3,-6.108647794E-4,8.704823442E-3
4.116709450E-1,-7.635809598E-4,-4.276053514E-3,5.039634649E-3
4.137961020E-1,-3.207040019E-3,-4.276053514E-3,5.039634649E-3
4.159212060E-1,-7.635809598E-4,-3.054323839E-3,6.261364091E-3
4.180463100E-1,6.566796452E-3,-1.404988952E-2,1.527161949E-4
4.201714140E-1,1.145371422E-2,-1.649334840E-2,1.374445739E-3
4.222965180E-1,1.145371422E-2,-5.497782957E-3,3.817904973E-3
4.244215700E-1,6.566796452E-3,4.276053514E-3,3.817904973E-3
4.265467790E-1,-1.985310577E-3,6.719512399E-3,2.596175298E-3
4.286718830E-1,-9.315688163E-3,1.649334840E-2,2.596175298E-3
4.307969870E-1,-5.650499370E-3,1.282816008E-2,3.817904973E-3
4.329220910E-1,2.901607659E-3,4.276053514E-3,6.261364091E-3
4.350471950E-1,4.123337101E-3,-3.054323839E-3,2.596175298E-3
4.371722990E-1,1.145371422E-2,-1.282816008E-2,5.039634649E-3
4.392974040E-1,7.788525894E-3,-9.162971750E-3,3.817904973E-3
4.414225600E-1,-7.635809598E-4,-4.276053514E-3,2.596175298E-3
4.435476640E-1,4.581485991E-4,4.276053514E-3,3.817904973E-3
4.456727680E-1,4.581485991E-4,1.160643063E-2,8.704823442E-3
4.477978720E-1,-1.985310577E-3,9.162971750E-3,6.261364091E-3
4.499229770E-1,-3.207040019E-3,6.719512399E-3,6.261364091E-3
4.520480810E-1,4.123337101E-3,4.276053514E-3,6.261364091E-3
4.541732370E-1,1.267544460E-2,-6.719512399E-3,1.374445739E-3
4.562983410E-1,1.145371422E-2,-7.941242307E-3,2.596175298E-3
4.584234450E-1,4.123337101E-3,-1.832594397E-3,2.596175298E-3
4.605485490E-1,1.679878100E-3,3.054323839E-3,6.261364091E-3
4.626736540E-1,4.123337101E-3,6.108647794E-4,7.483093534E-3
4.647987580E-1,2.901607659E-3,-1.832594397E-3,5.039634649E-3
4.669238620E-1,-4.428769462E-3,1.832594397E-3,3.817904973E-3
4.690490180E-1,-8.093958721E-3,6.719512399E-3,5.039634649E-3
4.711741220E-1,-1.985310577E-3,6.108647794E-4,8.704823442E-3
4.732992270E-1,4.581485991E-4,-1.160643063E-2,3.817904973E-3
4.754243310E-1,6.566796452E-3,-1.649334840E-2,3.817904973E-3
4.775494350E-1,4.123337101E-3,-7.941242307E-3,7.483093534E-3
4.796745910E-1,-1.985310577E-3,6.108647794E-4,6.261364091E-3
4.817996950E-1,-7.635809598E-4,-3.054323839E-3,5.039634649E-3
4.839247990E-1,-1.985310577E-3,1.832594397E-3,8.704823442E-3
4.860499040E-1,-4.428769462E-3,1.832594397E-3,5.039634649E-3
4.881750080E-1,1.679878100E-3,-6.108647794E-4,7.483093534E-3
4.903001120E-1,4.123337101E-3,-6.108647794E-4,7.483093534E-3
4.924252680E-1,5.345067009E-3,-1.771507785E-2,1.527161949E-4
4.945503200E-1,4.581485991E-4,-6.719512399E-3,5.039634649E-3
4.966754770E-1,4.581485991E-4,-3.054323839E-3,2.596175298E-3
4.988005810E-1,4.123337101E-3,-6.108647794E-4,6.261364091E-3
5.009256850E-1,4.123337101E-3,-4.276053514E-3,6.261364091E-3
5.030507890E-1,-1.053741761E-2,1.160643063E-2,5.039634649E-3
5.051758930E-1,-2.031125315E-2,1.893680729E-2,3.817904973E-3
5.073009970E-1,-9.315688163E-3,9.162971750E-3,9.926552884E-3
5.094261540E-1,4.123337101E-3,-6.719512399E-3,7.483093534E-3
5.115512580E-1,1.145371422E-2,-2.260199748E-2,6.261364091E-3
5.136763620E-1,6.566796452E-3,-1.893680729E-2,7.483093534E-3
5.158014660E-1,4.581485991E-4,-7.941242307E-3,7.483093534E-3
5.179265700E-1,-3.207040019E-3,1.832594397E-3,8.704823442E-3
5.200516740E-1,-8.093958721E-3,-6.108647794E-4,9.926552884E-3
5.221768310E-1,-1.053741761E-2,4.276053514E-3,8.704823442E-3
5.243019350E-1,-1.985310577E-3,3.054323839E-3,9.926552884E-3
5.264270390E-1,6.566796452E-3,-5.497782957E-3,1.114828233E-2
5.285521430E-1,9.010255337E-3,-1.160643063E-2,7.483093534E-3
5.306772470E-1,5.345067009E-3,-1.038470119E-2,6.261364091E-3
5.328023520E-1,4.581485991E-4,-6.108647794E-4,8.704823442E-3
5.349275080E-1,-7.635809598E-4,-6.108647794E-4,8.704823442E-3
5.370526120E-1,4.581485991E-4,-1.282816008E-2,7.483093534E-3
5.391777160E-1,-4.428769462E-3,-5.497782957E-3,8.704823442E-3
5.413028200E-1,-1.542433538E-2,1.038470119E-2,7.483093534E-3
5.434279240E-1,-1.786779426E-2,7.941242307E-3,8.704823442E-3
5.455530290E-1,-6.872228812E-3,1.832594397E-3,1.237001177E-2
5.476781330E-1,-7.635809598E-4,-1.038470119E-2,8.704823442E-3
5.498032890E-1,-3.207040019E-3,-1.771507785E-2,7.483093534E-3
5.519283930E-1,-6.872228812E-3,-7.941242307E-3,7.483093534E-3
5.540534970E-1,-1.542433538E-2,1.160643063E-2,1.114828233E-2
5.561786020E-1,-1.542433538E-2,5.497782957E-3,5.039634649E-3
5.583037060E-1,-1.542433538E-2,9.162971750E-3,9.926552884E-3
5.604288100E-1,-1.298087649E-2,1.771507785E-2,1.237001177E-2
5.625539140E-1,-9.315688163E-3,1.038470119E-2,1.237001177E-2
5.646790700E-1,-1.175914705E-2,7.941242307E-3,9.926552884E-3
5.668041740E-1,-8.093958721E-3,-3.054323839E-3,6.261364091E-3
5.689292790E-1,-4.428769462E-3,-1.893680729E-2,3.817904973E-3
5.710543830E-1,-9.315688163E-3,-5.497782957E-3,5.039634649E-3
5.731794870E-1,-1.053741761E-2,1.832594397E-3,6.261364091E-3
5.753045910E-1,-9.315688163E-3,-1.832594397E-3,5.039634649E-3
5.774297470E-1,-1.786779426E-2,1.160643063E-2,6.261364091E-3
5.795548520E-1,-2.153298259E-2,2.138026804E-2,6.261364091E-3
5.816799560E-1,-1.664606482E-2,1.160643063E-2,9.926552884E-3
5.838050600E-1,-5.650499370E-3,-5.497782957E-3,8.704823442E-3
5.859301640E-1,-4.428769462E-3,-2.015853859E-2,8.704823442E-3
5.880552680E-1,-1.175914705E-2,-1.649334840E-2,9.926552884E-3
5.901804240E-1,-2.031125315E-2,6.108647794E-4,6.261364091E-3
5.923055290E-1,-2.153298259E-2,-6.108647794E-4,7.483093534E-3
5.944306330E-1,-1.664606482E-2,-7.941242307E-3,1.114828233E-2
5.965557370E-1,-2.275471389E-2,6.719512399E-3,9.926552884E-3
5.986808410E-1,-2.764163166E-2,1.282816008E-2,9.926552884E-3
6.008059450E-1,-1.786779426E-2,9.162971750E-3,1.237001177E-2
6.029310490E-1,-8.093958721E-3,6.108647794E-4,7.483093534E-3
6.050562060E-1,-1.053741761E-2,-4.276053514E-3,5.039634649E-3
6.071813100E-1,-1.664606482E-2,4.276053514E-3,7.483093534E-3
6.093064140E-1,-1.786779426E-2,1.282816008E-2,9.926552884E-3
6.114315180E-1,-2.031125315E-2,1.282816008E-2,9.926552884E-3
6.135566220E-1,-2.153298259E-2,7.941242307E-3,9.926552884E-3
6.156817270E-1,-2.764163166E-2,1.527161989E-2,7.483093534E-3
6.178068830E-1,-2.764163166E-2,1.404988952E-2,8.704823442E-3
6.199319870E-1,-1.542433538E-2,6.108647794E-4,1.237001177E-2
6.220570910E-1,-8.093958721E-3,-1.038470119E-2,8.704823442E-3
6.241821950E-1,-1.298087649E-2,-1.649334840E-2,8.704823442E-3
6.263072990E-1,-1.786779426E-2,-6.108647794E-4,9.926552884E-3
6.284324040E-1,-1.908952370E-2,1.404988952E-2,9.926552884E-3
6.305575080E-1,-1.420260593E-2,6.719512399E-3,8.704823442E-3
6.326826640E-1,-1.298087649E-2,4.276053514E-3,1.114828233E-2
6.348077680E-1,-2.153298259E-2,1.771507785E-2,9.926552884E-3
6.369328720E-1,-2.641990222E-2,2.504545636E-2,1.237001177E-2
6.390579770E-1,-2.031125315E-2,1.649334840E-2,1.237001177E-2
6.411830810E-1,-1.420260593E-2,-6.108647794E-4,5.039634649E-3
6.433081850E-1,-1.053741761E-2,-1.771507785E-2,5.039634649E-3
6.454333410E-1,-1.175914705E-2,-1.282816008E-2,5.039634649E-3
6.475584450E-1,-1.542433538E-2,-1.832594397E-3,5.039634649E-3
6.496835490E-1,-1.786779426E-2,-3.054323839E-3,6.261364091E-3
6.518086540E-1,-2.275471389E-2,1.832594397E-3,8.704823442E-3
6.539337580E-1,-2.886336111E-2,1.282816008E-2,6.261364091E-3
6.560588620E-1,-2.275471389E-2,5.497782957E-3,9.926552884E-3
6.581840180E-1,-9.315688163E-3,-1.160643063E-2,9.926552884E-3
6.603091220E-1,-6.872228812E-3,-2.015853859E-2,7.483093534E-3
6.624342270E-1,-1.786779426E-2,-1.527161989E-2,8.704823442E-3
6.645593310E-1,-2.397644334E-2,6.108647794E-4,8.704823442E-3
6.666844350E-1,-2.031125315E-2,5.497782957E-3,7.483093534E-3
6.688095390E-1,-1.908952370E-2,3.054323839E-3,9.926552884E-3
6.709346430E-1,-2.153298259E-2,9.162971750E-3,7.483093534E-3
6.730597990E-1,-2.397644334E-2,1.160643063E-2,8.704823442E-3
6.751849040E-1,-1.420260593E-2,3.054323839E-3,1.114828233E-2
6.773100080E-1,-6.872228812E-3,-9.162971750E-3,5.039634649E-3
6.794351120E-1,-1.053741761E-2,-3.054323839E-3,3.817904973E-3
6.815602160E-1,-1.420260593E-2,4.276053514E-3,7.483093534E-3
6.836853200E-1,-8.093958721E-3,3.054323839E-3,7.483093534E-3
6.858104240E-1,-8.093958721E-3,6.108647794E-4,7.483093534E-3
6.879355810E-1,-1.664606482E-2,6.108647794E-4,7.483093534E-3
6.900606850E-1,-2.397644334E-2,1.527161989E-2,7.483093534E-3
6.921857890E-1,-2.641990222E-2,1.649334840E-2,6.261364091E-3
6.943108930E-1,-1.908952370E-2,-6.108647794E-4,8.704823442E-3
6.964359970E-1,-1.298087649E-2,-5.497782957E-3,7.483093534E-3
6.985611020E-1,-1.298087649E-2,-1.160643063E-2,6.261364091E-3
7.006862580E-1,-1.542433538E-2,-6.719512399E-3,6.261364091E-3
7.028113620E-1,-2.275471389E-2,3.054323839E-3,7.483093534E-3
7.049364660E-1,-2.031125315E-2,9.162971750E-3,7.483093534E-3
7.070615700E-1,-1.786779426E-2,6.719512399E-3,8.704823442E-3
7.091866740E-1,-1.420260593E-2,7.941242307E-3,8.704823442E-3
7.113117790E-1,-1.298087649E-2,1.404988952E-2,1.114828233E-2
7.134368830E-1,-8.093958721E-3,3.054323839E-3,1.237001177E-2
7.155620390E-1,-3.207040019E-3,-1.649334840E-2,7.483093534E-3
7.176871430E-1,-9.315688163E-3,-2.382372692E-2,2.596175298E-3
7.198122470E-1,-1.420260593E-2,-3.054323839E-3,7.483093534E-3
7.219373520E-1,-1.298087649E-2,-6.108647794E-4,8.704823442E-3
7.240624560E-1,-1.053741761E-2,-1.527161989E-2,5.039634649E-3
7.261875600E-1,-1.542433538E-2,-4.276053514E-3,6.261364091E-3
7.283127160E-1,-2.397644334E-2,1.160643063E-2,7.483093534E-3
7.304378200E-1,-2.397644334E-2,1.282816008E-2,9.926552884E-3
7.325629240E-1,-1.298087649E-2,-1.832594397E-3,8.704823442E-3
7.346880290E-1,1.679878100E-3,-2.260199748E-2,7.483093534E-3
7.368131330E-1,1.679878100E-3,-2.382372692E-2,8.704823442E-3
7.389382370E-1,-9.315688163E-3,-9.162971750E-3,8.704823442E-3
7.410633410E-1,-1.175914705E-2,-3.054323839E-3,7.483093534E-3
7.431884970E-1,-1.175914705E-2,-5.497782957E-3,7.483093534E-3
7.453136020E-1,-1.786779426E-2,9.162971750E-3,9.926552884E-3
7.474387060E-1,-1.908952370E-2,1.527161989E-2,1.114828233E-2
7.495638100E-1,-6.872228812E-3,-3.054323839E-3,8.704823442E-3
7.516889140E-1,1.679878100E-3,-1.404988952E-2,6.261364091E-3
7.538140180E-1,-3.207040019E-3,-5.497782957E-3,5.039634649E-3
7.559391740E-1,-1.175914705E-2,7.941242307E-3,5.039634649E-3
7.580642790E-1,-1.786779426E-2,1.893680729E-2,6.261364091E-3
7.601893830E-1,-9.315688163E-3,1.527161989E-2,7.483093534E-3
7.623144870E-1,-3.207040019E-3,3.054323839E-3,7.483093534E-3
7.644395910E-1,-1.053741761E-2,1.832594397E-3,7.483093534E-3
7.665646950E-1,-1.786779426E-2,1.282816008E-2,7.483093534E-3
7.686898520E-1,-1.420260593E-2,7.941242307E-3,9.926552884E-3
7.708149560E-1,-5.650499370E-3,-1.404988952E-2,1.114828233E-2
7.729400600E-1,-3.207040019E-3,-2.504545636E-2,8.704823442E-3
7.750651640E-1,-4.428769462E-3,-1.527161989E-2,9.926552884E-3
7.771902680E-1,-6.872228812E-3,-3.054323839E-3,9.926552884E-3
7.793153720E-1,-1.053741761E-2,-1.832594397E-3,8.704823442E-3
7.814404770E-1,-1.053741761E-2,3.054323839E-3,8.704823442E-3
7.835656330E-1,-1.175914705E-2,1.527161989E-2,1.114828233E-2
7.856907370E-1,-9.315688163E-3,1.649334840E-2,1.359174121E-2
7.878158410E-1,-4.428769462E-3,-7.941242307E-3,1.237001177E-2
7.899409450E-1,-7.635809598E-4,-2.748891525E-2,8.704823442E-3
7.920660490E-1,-8.093958721E-3,-2.015853859E-2,5.039634649E-3
7.941912060E-1,-1.175914705E-2,-1.038470119E-2,6.261364091E-3
7.963162580E-1,-1.298087649E-2,-1.160643063E-2,6.261364091E-3
7.984414140E-1,-1.298087649E-2,-6.719512399E-3,5.039634649E-3
8.005665180E-1,-1.542433538E-2,-9.162971750E-3,6.261364091E-3
8.026916220E-1,-1.542433538E-2,-7.941242307E-3,3.817904973E-3
8.048167270E-1,-6.872228812E-3,-6.719512399E-3,8.704823442E-3
8.069418310E-1,-4.428769462E-3,-1.893680729E-2,9.926552884E-3
8.090669350E-1,-6.872228812E-3,-1.771507785E-2,6.261364091E-3
8.111920910E-1,-1.298087649E-2,-1.832594397E-3,9.926552884E-3
8.133171950E-1,-1.420260593E-2,3.054323839E-3,9.926552884E-3
8.154422990E-1,-5.650499370E-3,-1.404988952E-2,7.483093534E-3
8.175674040E-1,-5.650499370E-3,-6.719512399E-3,6.261364091E-3
8.196925080E-1,-1.298087649E-2,2.015853859E-2,6.261364091E-3
8.218176120E-1,-1.908952370E-2,3.970621154E-2,8.704823442E-3
8.239427680E-1,-1.664606482E-2,2.382372692E-2,9.926552884E-3
8.260678720E-1,-4.428769462E-3,6.719512399E-3,7.483093534E-3
8.281929770E-1,1.679878100E-3,4.276053514E-3,3.817904973E-3
8.303180810E-1,1.679878100E-3,-7.941242307E-3,3.817904973E-3
8.324431850E-1,4.123337101E-3,-3.054323839E-3,6.261364091E-3
8.345682890E-1,4.581485991E-4,5.497782957E-3,6.261364091E-3
8.366933930E-1,-7.635809598E-4,6.719512399E-3,6.261364091E-3
8.388185490E-1,-6.872228812E-3,6.719512399E-3,7.483093534E-3
8.409436540E-1,-5.650499370E-3,4.276053514E-3,6.261364091E-3
8.430687580E-1,-3.207040019E-3,-6.108647794E-4,7.483093534E-3
8.451938620E-1,-3.207040019E-3,-6.719512399E-3,8.704823442E-3
8.473189660E-1,-3.207040019E-3,-1.160643063E-2,6.261364091E-3
8.494440700E-1,-5.650499370E-3,-6.108647794E-4,3.817904973E-3
8.515691740E-1,-4.428769462E-3,1.649334840E-2,6.261364091E-3
8.536943310E-1,-3.207040019E-3,1.282816008E-2,5.039634649E-3
8.558194350E-1,-3.207040019E-3,1.160643063E-2,6.261364091E-3
8.579445390E-1,-1.985310577E-3,2.138026804E-2,6.261364091E-3
8.600696430E-1,5.345067009E-3,2.748891525E-2,1.237001177E-2
8.621947470E-1,1.023198478E-2,1.404988952E-2,9.926552884E-3
8.643198520E-1,6.566796452E-3,-5.497782957E-3,6.261364091E-3
8.664450080E-1,6.566796452E-3,-9.162971750E-3,1.374445739E-3
8.685701120E-1,2.901607659E-3,1.832594397E-3,2.596175298E-3
8.706952160E-1,4.581485991E-4,1.771507785E-2,2.596175298E-3
8.728203200E-1,-7.635809598E-4,1.404988952E-2,6.261364091E-3
8.749454240E-1,-1.985310577E-3,1.527161989E-2,7.483093534E-3
8.770705290E-1,-3.207040019E-3,2.993237413E-2,7.483093534E-3
8.791956850E-1,-1.985310577E-3,2.138026804E-2,8.704823442E-3
8.813207890E-1,6.566796452E-3,6.108647794E-4,8.704823442E-3
8.834458930E-1,1.023198478E-2,-4.276053514E-3,5.039634649E-3
8.855709970E-1,4.123337101E-3,5.497782957E-3,9.926552884E-3
8.876961020E-1,4.581485991E-4,1.160643063E-2,6.261364091E-3
8.898212060E-1,5.345067009E-3,6.108647794E-4,6.261364091E-3
8.919463100E-1,9.010255337E-3,-6.719512399E-3,6.261364091E-3
8.940714660E-1,1.679878100E-3,1.038470119E-2,7.483093534E-3
8.961965700E-1,-7.635809598E-4,3.604102135E-2,9.926552884E-3
8.983216740E-1,4.123337101E-3,2.748891525E-2,1.359174121E-2
9.004467790E-1,1.267544460E-2,-5.497782957E-3,9.926552884E-3
9.025718830E-1,1.389717404E-2,-1.527161989E-2,2.596175298E-3
9.046969870E-1,1.145371422E-2,1.832594397E-3,6.261364091E-3
9.068220910E-1,5.345067009E-3,1.160643063E-2,5.039634649E-3
9.089472470E-1,4.123337101E-3,1.404988952E-2,5.039634649E-3
9.110723520E-1,-7.635809598E-4,1.527161989E-2,5.039634649E-3
9.131974560E-1,-6.872228812E-3,2.138026804E-2,7.483093534E-3
9.153225600E-1,-1.053741761E-2,2.748891525E-2,6.261364091E-3
9.174476640E-1,-6.872228812E-3,1.893680729E-2,1.114828233E-2
9.195728200E-1,1.679878100E-3,-2.015853859E-2,9.926552884E-3
9.216979240E-1,2.901607659E-3,-4.214967042E-2,5.039634649E-3
9.238230290E-1,5.345067009E-3,-2.015853859E-2,5.039634649E-3
9.259481330E-1,4.123337101E-3,-1.160643063E-2,8.704823442E-3
9.280732370E-1,-1.985310577E-3,-7.941242307E-3,5.039634649E-3
9.301983410E-1,-8.093958721E-3,1.771507785E-2,3.817904973E-3
9.323234450E-1,-1.175914705E-2,4.459312931E-2,6.261364091E-3
9.344486020E-1,-1.053741761E-2,4.214967042E-2,1.114828233E-2
9.365737060E-1,-4.428769462E-3,2.260199748E-2,1.237001177E-2
9.386988100E-1,4.123337101E-3,-9.162971750E-3,1.114828233E-2
9.408239140E-1,6.566796452E-3,-4.581485689E-2,3.817904973E-3
9.429490180E-1,5.345067009E-3,-3.604102135E-2,3.817904973E-3
9.450741220E-1,4.581485991E-4,-1.893680729E-2,7.483093534E-3
9.471992270E-1,-4.428769462E-3,-6.719512399E-3,7.483093534E-3
9.493243830E-1,-1.420260593E-2,1.649334840E-2,3.817904973E-3
9.514494870E-1,-1.298087649E-2,4.581485689E-2,7.483093534E-3
9.535745910E-1,-8.093958721E-3,5.192350596E-2,9.926552884E-3
9.556996950E-1,4.581485991E-4,1.404988952E-2,1.114828233E-2
9.578247990E-1,6.566796452E-3,-1.404988952E-2,7.483093534E-3
9.599499040E-1,1.389717404E-2,-1.771507785E-2,8.704823442E-3
9.620750600E-1,1.145371422E-2,-2.260199748E-2,9.926552884E-3
9.642001640E-1,5.345067009E-3,-1.893680729E-2,6.261364091E-3
9.663252680E-1,-1.985310577E-3,1.771507785E-2,7.483093534E-3
9.684503200E-1,-8.093958721E-3,4.703658819E-2,8.704823442E-3
9.705754770E-1,-4.428769462E-3,2.138026804E-2,8.704823442E-3
9.727005810E-1,7.788525894E-3,6.108647794E-4,1.237001177E-2
9.748257370E-1,1.634063199E-2,-6.108647794E-4,9.926552884E-3
9.769508410E-1,1.267544460E-2,-6.108647794E-4,8.704823442E-3
9.790759450E-1,5.345067009E-3,3.054323839E-3,5.039634649E-3
9.812010490E-1,6.566796452E-3,6.719512399E-3,7.483093534E-3
9.833261540E-1,6.566796452E-3,1.832594397E-3,1.114828233E-2
9.854512580E-1,4.123337101E-3,5.497782957E-3,8.704823442E-3
9.875764140E-1,-4.428769462E-3,2.504545636E-2,1.114828233E-2
9.897015180E-1,-4.428769462E-3,3.481929377E-2,1.237001177E-2
9.918266220E-1,1.679878100E-3,2.382372692E-2,1.114828233E-2
9.939517270E-1,7.788525894E-3,-9.162971750E-3,8.704823442E-3
9.960768310E-1,1.267544460E-2,-2.871064469E-2,9.926552884E-3
9.982019350E-1,1.267544460E-2,-1.160643063E-2,9.926552884E-3
1.000327039E0,5.345067009E-3,1.527161989E-2,1.359174121E-2
1.002452143E0,1.679878100E-3,2.993237413E-2,1.114828233E-2
1.004577299E0,1.679878100E-3,4.214967042E-2,8.704823442E-3
1.006702404E0,-3.207040019E-3,6.047561392E-2,1.237001177E-2
1.008827508E0,-7.635809598E-4,7.147117704E-2,1.725693047E-2
1.010952612E0,9.010255337E-3,5.803215504E-2,1.725693047E-2
1.013077716E0,1.634063199E-2,9.162971750E-3,1.237001177E-2
1.015202872E0,2.000582218E-2,-2.748891525E-2,8.704823442E-3
1.017327977E0,2.367101051E-2,-1.404988952E-2,7.483093534E-3
1.019453081E0,2.000582218E-2,2.015853859E-2,1.114828233E-2
1.021578185E0,1.267544460E-2,2.626718581E-2,1.481347065E-2
1.023703289E0,2.901607659E-3,4.825831577E-2,1.481347065E-2
1.025828393E0,-4.428769462E-3,9.346231073E-2,1.481347065E-2
1.027953497E0,1.679878100E-3,1.081230640E-1,1.970038936E-2
1.030078602E0,7.788525894E-3,6.780599058E-2,1.847865991E-2
1.032203758E0,1.756236330E-2,1.649334840E-2,1.114828233E-2
1.034328862E0,2.855792828E-2,-2.260199748E-2,1.603520103E-2
1.036453966E0,2.977965772E-2,-2.260199748E-2,1.603520103E-2
1.038579070E0,2.367101051E-2,-6.719512399E-3,1.481347065E-2
1.040704174E0,1.511890348E-2,5.497782957E-3,1.359174121E-2
1.042829279E0,7.788525894E-3,3.481929377E-2,1.237001177E-2
1.044954383E0,6.566796452E-3,6.047561392E-2,1.481347065E-2
1.047079539E0,1.267544460E-2,6.536252797E-2,1.970038936E-2
1.049204643E0,1.756236330E-2,3.604102135E-2,1.847865991E-2
1.051329747E0,1.756236330E-2,1.832594397E-3,1.114828233E-2
1.053454852E0,2.000582218E-2,-1.160643063E-2,7.483093534E-3
1.055579904E0,2.244928107E-2,-1.649334840E-2,7.483093534E-3
1.057705112E0,2.000582218E-2,-6.719512399E-3,9.926552884E-3
1.059830216E0,1.267544460E-2,1.282816008E-2,1.237001177E-2
1.061955320E0,4.123337101E-3,3.604102135E-2,1.603520103E-2
1.064080424E0,4.581485991E-4,5.681042373E-2,1.481347065E-2
1.066205529E0,2.901607659E-3,5.070177838E-2,1.603520103E-2
1.068330633E0,1.023198478E-2,1.832594397E-3,1.237001177E-2
1.070455737E0,1.634063199E-2,-2.138026804E-2,1.114828233E-2
1.072580893E0,2.122755162E-2,-2.626718581E-2,8.704823442E-3
1.074705997E0,2.611446939E-2,-1.527161989E-2,1.603520103E-2
1.076831102E0,2.000582218E-2,-1.527161989E-2,1.603520103E-2
1.078956206E0,1.267544460E-2,1.832594397E-3,8.704823442E-3
1.081081310E0,4.123337101E-3,5.436696485E-2,1.481347065E-2
1.083206414E0,-7.635809598E-4,7.147117704E-2,1.847865991E-2
1.085331466E0,5.345067009E-3,4.581485689E-2,1.847865991E-2
1.087456674E0,1.389717404E-2,-6.108647794E-4,1.359174121E-2
1.089581779E0,1.878409274E-2,-2.626718581E-2,9.926552884E-3
1.091706883E0,1.756236330E-2,-4.459312931E-2,8.704823442E-3
1.093831987E0,1.389717404E-2,-4.092793912E-2,8.704823442E-3
1.095957091E0,1.145371422E-2,-7.941242307E-3,1.603520103E-2
1.098082195E0,-3.207040019E-3,2.382372692E-2,1.481347065E-2
1.100207352E0,-1.175914705E-2,5.436696485E-2,1.114828233E-2
1.102332456E0,-3.207040019E-3,5.192350596E-2,1.725693047E-2
1.104457560E0,9.010255337E-3,9.162971750E-3,1.847865991E-2
1.106582612E0,1.878409274E-2,-5.070177838E-2,1.359174121E-2
1.108707768E0,1.878409274E-2,-6.658425927E-2,1.237001177E-2
1.110832872E0,2.000582218E-2,-4.703658819E-2,1.847865991E-2
1.112958029E0,1.389717404E-2,-3.359756246E-2,1.725693047E-2
1.115083133E0,2.901607659E-3,-1.404988952E-2,1.359174121E-2
1.117208237E0,-5.650499370E-3,2.748891525E-2,1.114828233E-2
1.119333341E0,-1.985310577E-3,5.803215504E-2,1.603520103E-2
1.121458445E0,2.901607659E-3,5.070177838E-2,2.092211880E-2
1.123583549E0,1.511890348E-2,7.941242307E-3,1.725693047E-2
1.125708654E0,2.611446939E-2,-2.504545636E-2,1.359174121E-2
1.127833758E0,2.611446939E-2,-1.893680729E-2,1.237001177E-2
1.129958914E0,1.756236330E-2,-6.108647794E-4,1.481347065E-2
1.132084018E0,1.145371422E-2,1.832594397E-3,1.481347065E-2
1.134209122E0,5.345067009E-3,-4.276053514E-3,1.237001177E-2
1.136334227E0,4.123337101E-3,2.260199748E-2,1.481347065E-2
1.138459331E0,1.679878100E-3,3.604102135E-2,2.092211880E-2
1.140584435E0,5.345067009E-3,1.282816008E-2,1.970038936E-2
1.142709591E0,1.145371422E-2,-1.038470119E-2,1.603520103E-2
1.144834695E0,1.511890348E-2,-1.404988952E-2,1.481347065E-2
1.146959799E0,1.511890348E-2,-9.162971750E-3,1.725693047E-2
1.149084904E0,1.023198478E-2,-4.276053514E-3,1.847865991E-2
1.151210008E0,5.345067009E-3,4.276053514E-3,1.359174121E-2
1.153335112E0,4.123337101E-3,2.993237413E-2,1.237001177E-2
1.155460268E0,-7.635809598E-4,6.780599058E-2,1.603520103E-2
1.157585372E0,1.679878100E-3,7.757982612E-2,1.847865991E-2
1.159710477E0,1.267544460E-2,4.581485689E-2,2.336557768E-2
1.161835581E0,2.367101051E-2,3.054323839E-3,2.092211880E-2
1.163960685E0,2.489273995E-2,-2.871064469E-2,1.481347065E-2
1.166085789E0,1.878409274E-2,-2.015853859E-2,1.603520103E-2
1.168210893E0,1.389717404E-2,-1.832594397E-3,1.603520103E-2
1.170336049E0,6.566796452E-3,4.276053514E-3,1.603520103E-2
1.172461154E0,4.581485991E-4,2.626718581E-2,1.847865991E-2
1.174586258E0,-7.635809598E-4,7.147117704E-2,2.214384824E-2
1.176711362E0,-1.985310577E-3,8.002328873E-2,2.458730713E-2
1.178836466E0,2.901607659E-3,4.581485689E-2,2.336557768E-2
1.180961570E0,9.010255337E-3,1.649334840E-2,1.603520103E-2
1.183086674E0,1.511890348E-2,4.276053514E-3,1.847865991E-2
1.185211831E0,1.756236330E-2,-1.771507785E-2,2.336557768E-2
1.187336935E0,1.511890348E-2,-4.337139800E-2,1.970038936E-2
1.189462039E0,1.145371422E-2,-3.970621154E-2,1.847865991E-2
1.191587143E0,-1.985310577E-3,1.282816008E-2,1.603520103E-2
1.193712247E0,-6.872228812E-3,5.681042373E-2,1.847865991E-2
1.195837352E0,-3.207040019E-3,5.192350596E-2,2.214384824E-2
1.197962508E0,4.123337101E-3,3.359756246E-2,2.336557768E-2
1.200087612E0,1.145371422E-2,1.160643063E-2,1.847865991E-2
1.202212716E0,1.511890348E-2,-1.649334840E-2,1.725693047E-2
1.204337820E0,1.267544460E-2,-3.481929377E-2,1.359174121E-2
1.206462924E0,1.023198478E-2,-9.162971750E-3,1.481347065E-2
1.208588081E0,2.901607659E-3,1.649334840E-2,1.970038936E-2
1.210713185E0,-5.650499370E-3,2.504545636E-2,1.603520103E-2
1.212838289E0,-9.315688163E-3,4.459312931E-2,1.847865991E-2
1.214963393E0,-4.428769462E-3,5.436696485E-2,2.092211880E-2
1.217088497E0,-3.207040019E-3,2.382372692E-2,2.214384824E-2
1.219213602E0,1.679878100E-3,-1.649334840E-2,1.359174121E-2
1.221338706E0,6.566796452E-3,-1.404988952E-2,1.725693047E-2
1.223463810E0,1.023198478E-2,-1.404988952E-2,2.092211880E-2
1.225588966E0,2.901607659E-3,-2.504545636E-2,1.847865991E-2
1.227714070E0,-1.985310577E-3,-1.832594397E-3,1.359174121E-2
1.229839174E0,-8.093958721E-3,4.459312931E-2,1.725693047E-2
1.231964279E0,-8.093958721E-3,7.269290835E-2,1.970038936E-2
1.234089383E0,-6.872228812E-3,5.925388262E-2,2.458730713E-2
1.236214487E0,2.901607659E-3,7.941242307E-3,2.092211880E-2
1.238339591E0,6.566796452E-3,-4.948004708E-2,1.603520103E-2
1.240464747E0,5.345067009E-3,-5.681042373E-2,1.114828233E-2
1.242589852E0,2.901607659E-3,-4.948004708E-2,1.481347065E-2
1.244714956E0,-3.207040019E-3,-3.726275265E-2,1.725693047E-2
1.246840060E0,-1.175914705E-2,3.054323839E-3,1.603520103E-2
1.248965164E0,-2.153298259E-2,5.070177838E-2,1.847865991E-2
1.251090268E0,-2.031125315E-2,7.513637096E-2,2.092211880E-2
1.253215424E0,-1.298087649E-2,5.558869615E-2,2.458730713E-2
1.255340529E0,-7.635809598E-4,-7.941242307E-3,1.603520103E-2
1.257465633E0,9.010255337E-3,-5.192350596E-2,1.603520103E-2
1.259590737E0,1.878409274E-2,-5.070177838E-2,1.970038936E-2
1.261715841E0,1.389717404E-2,-4.092793912E-2,2.092211880E-2
1.263840945E0,5.345067009E-3,-3.115410358E-2,2.092211880E-2
1.265966102E0,-3.207040019E-3,4.276053514E-3,1.847865991E-2
1.268091206E0,-5.650499370E-3,5.192350596E-2,1.847865991E-2
1.270216310E0,-6.872228812E-3,5.314523727E-2,2.458730713E-2
1.272341414E0,4.581485991E-4,2.626718581E-2,2.214384824E-2
1.274466518E0,1.023198478E-2,3.054323839E-3,1.847865991E-2
1.276591622E0,1.389717404E-2,-6.719512399E-3,1.603520103E-2
1.278716727E0,1.511890348E-2,-1.038470119E-2,1.847865991E-2
1.280841831E0,1.511890348E-2,-2.382372692E-2,1.603520103E-2
1.282966987E0,9.010255337E-3,-1.038470119E-2,1.725693047E-2
1.285092091E0,-3.207040019E-3,2.748891525E-2,1.847865991E-2
1.287217247E0,-1.053741761E-2,4.703658819E-2,2.214384824E-2
1.289342299E0,-9.315688163E-3,4.337139800E-2,2.336557768E-2
1.291467404E0,-5.650499370E-3,2.993237413E-2,2.092211880E-2
1.293592560E0,1.679878100E-3,1.282816008E-2,1.603520103E-2
1.295717612E0,1.023198478E-2,-1.771507785E-2,1.970038936E-2
1.297842768E0,1.389717404E-2,-2.748891525E-2,2.092211880E-2
1.299967872E0,9.010255337E-3,-1.649334840E-2,1.970038936E-2
1.302092977E0,2.901607659E-3,1.832594397E-3,1.847865991E-2
1.304218081E0,-3.207040019E-3,5.192350596E-2,2.092211880E-2
1.306343185E0,-1.053741761E-2,7.757982612E-2,2.092211880E-2
1.308468289E0,-9.315688163E-3,7.757982612E-2,2.580903657E-2
1.310593445E0,-7.635809598E-4,3.604102135E-2,2.458730713E-2
1.312718549E0,6.566796452E-3,-1.282816008E-2,1.847865991E-2
1.314843654E0,9.010255337E-3,-2.138026804E-2,1.603520103E-2
1.316968758E0,6.566796452E-3,-3.726275265E-2,1.725693047E-2
1.319093862E0,2.901607659E-3,-3.726275265E-2,1.603520103E-2
1.321218966E0,-5.650499370E-3,1.771507785E-2,1.847865991E-2
1.323344122E0,-1.908952370E-2,7.635809481E-2,2.214384824E-2
1.325469227E0,-2.275471389E-2,8.491020650E-2,2.336557768E-2
1.327594331E0,-1.664606482E-2,5.925388262E-2,2.458730713E-2
1.329719435E0,-9.315688163E-3,2.993237413E-2,2.214384824E-2
1.331844539E0,-1.985310577E-3,-1.404988952E-2,1.970038936E-2
1.333969643E0,2.901607659E-3,-5.558869615E-2,1.847865991E-2
1.336094747E0,7.788525894E-3,-6.780599058E-2,1.847865991E-2
1.338219904E0,4.123337101E-3,-5.558869615E-2,1.970038936E-2
1.340345008E0,-1.053741761E-2,-3.115410358E-2,1.970038936E-2
1.342470112E0,-2.153298259E-2,1.893680729E-2,1.970038936E-2
1.344595216E0,-2.397644334E-2,5.558869615E-2,2.336557768E-2
1.346720320E0,-2.153298259E-2,5.681042373E-2,2.580903657E-2
1.348845424E0,-1.908952370E-2,2.626718581E-2,1.970038936E-2
1.350970529E0,-1.298087649E-2,-2.138026804E-2,1.603520103E-2
1.353095685E0,-4.428769462E-3,-5.681042373E-2,1.359174121E-2
1.355220789E0,-1.985310577E-3,-4.825831577E-2,1.481347065E-2
1.357345893E0,-1.053741761E-2,-3.604102135E-2,1.603520103E-2
1.359470997E0,-2.275471389E-2,-6.719512399E-3,1.725693047E-2
1.361596102E0,-2.153298259E-2,3.481929377E-2,2.092211880E-2
1.363721258E0,-2.153298259E-2,4.214967042E-2,2.458730713E-2
1.365846362E0,-2.153298259E-2,6.719512399E-3,1.847865991E-2
1.367971466E0,-1.542433538E-2,-2.504545636E-2,1.603520103E-2
1.370096570E0,-6.872228812E-3,-3.481929377E-2,1.481347065E-2
1.372221674E0,-1.053741761E-2,-3.115410358E-2,2.214384824E-2
1.374346779E0,-1.542433538E-2,-2.871064469E-2,1.847865991E-2
1.376471883E0,-2.031125315E-2,-3.054323839E-3,1.481347065E-2
1.378597039E0,-2.397644334E-2,5.192350596E-2,1.725693047E-2
1.380722143E0,-2.397644334E-2,7.880155742E-2,1.970038936E-2
1.382847247E0,-1.908952370E-2,6.536252797E-2,2.092211880E-2
1.384972352E0,-1.053741761E-2,3.359756246E-2,2.214384824E-2
1.387097456E0,-6.872228812E-3,-1.160643063E-2,1.725693047E-2
1.389222560E0,4.581485991E-4,-3.359756246E-2,1.603520103E-2
1.391347716E0,-3.207040019E-3,-3.115410358E-2,1.603520103E-2
1.393472820E0,-1.298087649E-2,-1.527161989E-2,1.481347065E-2
1.395597924E0,-2.519817278E-2,2.260199748E-2,1.725693047E-2
1.397723029E0,-3.497200832E-2,6.414080411E-2,2.092211880E-2
1.399848133E0,-3.497200832E-2,7.147117704E-2,2.214384824E-2
1.401973237E0,-2.886336111E-2,3.481929377E-2,2.458730713E-2
1.404098341E0,-1.542433538E-2,-7.941242307E-3,1.970038936E-2
1.406223445E0,-1.053741761E-2,-4.092793912E-2,1.847865991E-2
1.408348602E0,-1.053741761E-2,-4.948004708E-2,1.847865991E-2
1.410473706E0,-9.315688163E-3,-2.993237413E-2,2.214384824E-2
1.412598810E0,-1.542433538E-2,-1.771507785E-2,2.214384824E-2
1.414723914E0,-3.008509055E-2,1.038470119E-2,1.847865991E-2
1.416849018E0,-3.497200832E-2,6.169734150E-2,2.092211880E-2
1.418974122E0,-2.886336111E-2,7.269290835E-2,2.336557768E-2
1.421099279E0,-2.031125315E-2,4.214967042E-2,2.703076601E-2
1.423224383E0,-1.420260593E-2,5.497782957E-3,1.847865991E-2
1.425349487E0,-9.315688163E-3,-2.382372692E-2,1.970038936E-2
1.427474591E0,-5.650499370E-3,-4.092793912E-2,1.725693047E-2
1.429599695E0,-9.315688163E-3,-1.893680729E-2,2.092211880E-2
1.431724799E0,-2.031125315E-2,1.282816008E-2,2.092211880E-2
1.433849956E0,-2.886336111E-2,3.359756246E-2,2.092211880E-2
1.435975060E0,-3.008509055E-2,4.459312931E-2,2.092211880E-2
1.438100164E0,-2.641990222E-2,4.459312931E-2,2.458730713E-2
1.440225268E0,-2.153298259E-2,1.893680729E-2,2.458730713E-2
1.442350372E0,-1.786779426E-2,-1.649334840E-2,1.603520103E-2
1.444475477E0,-1.053741761E-2,-2.504545636E-2,1.847865991E-2
1.446600581E0,-1.053741761E-2,-1.649334840E-2,2.458730713E-2
1.448725737E0,-1.542433538E-2,-2.504545636E-2,2.214384824E-2
1.450850841E0,-2.031125315E-2,-1.893680729E-2,1.603520103E-2
1.452975945E0,-2.641990222E-2,2.382372692E-2,1.847865991E-2
1.455101049E0,-2.764163166E-2,6.536252797E-2,2.214384824E-2
1.457226154E0,-2.641990222E-2,5.314523727E-2,2.580903657E-2
1.459351258E0,-2.153298259E-2,2.015853859E-2,2.336557768E-2
1.461476362E0,-1.664606482E-2,-1.893680729E-2,1.970038936E-2
1.463601518E0,-1.664606482E-2,-4.703658819E-2,1.725693047E-2
1.465726622E0,-2.031125315E-2,-3.481929377E-2,1.603520103E-2
1.467851727E0,-2.641990222E-2,-2.138026804E-2,1.603520103E-2
1.469976831E0,-3.497200832E-2,1.038470119E-2,1.725693047E-2
1.472101935E0,-4.230238497E-2,5.436696485E-2,1.847865991E-2
1.474227039E0,-3.985892609E-2,6.414080411E-2,2.214384824E-2
1.476352195E0,-3.375028074E-2,2.993237413E-2,2.214384824E-2
1.478477299E0,-2.153298259E-2,-1.649334840E-2,1.603520103E-2
1.480602404E0,-9.315688163E-3,-5.681042373E-2,1.359174121E-2
1.482727508E0,-5.650499370E-3,-7.391463965E-2,1.847865991E-2
1.484852612E0,-5.650499370E-3,-6.291907281E-2,1.970038936E-2
1.486977768E0,-1.542433538E-2,-4.092793912E-2,2.336557768E-2
1.489102820E0,-2.886336111E-2,-5.497782957E-3,1.603520103E-2
1.491227977E0,-3.497200832E-2,5.436696485E-2,1.603520103E-2
1.493353081E0,-3.252854943E-2,7.880155742E-2,2.214384824E-2
1.495478185E0,-2.275471389E-2,4.337139800E-2,2.336557768E-2
1.497603289E0,-1.053741761E-2,-2.260199748E-2,2.092211880E-2
1.499728393E0,-4.428769462E-3,-3.970621154E-2,1.970038936E-2
1.501853497E0,-4.428769462E-3,-1.527161989E-2,1.847865991E-2
1.503978654E0,-8.093958721E-3,-4.276053514E-3,1.725693047E-2
1.506103758E0,-1.542433538E-2,4.276053514E-3,1.847865991E-2
1.508228862E0,-1.908952370E-2,2.626718581E-2,1.970038936E-2
1.510353966E0,-1.542433538E-2,3.481929377E-2,2.214384824E-2
1.512479070E0,-1.298087649E-2,2.626718581E-2,2.214384824E-2
1.514604174E0,-1.298087649E-2,2.871064469E-2,2.336557768E-2
1.516729331E0,-8.093958721E-3,2.138026804E-2,2.092211880E-2
1.518854435E0,4.581485991E-4,-2.138026804E-2,1.847865991E-2
1.520979487E0,6.566796452E-3,-2.015853859E-2,2.092211880E-2
1.523104643E0,9.010255337E-3,-1.649334840E-2,2.703076601E-2
1.525229747E0,4.123337101E-3,-3.237583488E-2,2.458730713E-2
1.527354852E0,-7.635809598E-4,1.832594397E-3,2.092211880E-2
1.529479956E0,-4.428769462E-3,6.169734150E-2,1.970038936E-2
1.531605112E0,-5.650499370E-3,7.635809481E-2,2.825249545E-2
1.533730216E0,-3.207040019E-3,4.214967042E-2,2.825249545E-2
1.535855320E0,4.581485991E-4,1.832594397E-3,2.092211880E-2
1.537980424E0,4.123337101E-3,-4.276053514E-3,1.847865991E-2
1.540105529E0,5.345067009E-3,7.941242307E-3,2.336557768E-2
1.542230633E0,-3.207040019E-3,1.160643063E-2,1.847865991E-2
1.544355737E0,-1.175914705E-2,3.115410358E-2,1.725693047E-2
1.546480893E0,-1.542433538E-2,7.757982612E-2,2.214384824E-2
1.548605997E0,-1.542433538E-2,9.101885557E-2,2.703076601E-2
1.550731102E0,-2.031125315E-2,6.047561392E-2,2.580903657E-2
1.552856206E0,-1.664606482E-2,2.138026804E-2,2.092211880E-2
1.554981310E0,-9.315688163E-3,-1.160643063E-2,1.603520103E-2
1.557106362E0,-6.872228812E-3,-3.848448023E-2,1.847865991E-2
1.559231570E0,-5.650499370E-3,-5.681042373E-2,2.214384824E-2
1.561356674E0,-1.053741761E-2,-7.024945319E-2,2.092211880E-2
1.563481779E0,-1.664606482E-2,-4.825831577E-2,1.847865991E-2
1.565606883E0,-2.153298259E-2,-1.832594397E-3,1.725693047E-2
1.567731987E0,-1.786779426E-2,5.192350596E-2,2.214384824E-2
1.569857091E0,-2.275471389E-2,6.414080411E-2,2.703076601E-2
1.571982247E0,-2.397644334E-2,3.848448023E-2,2.092211880E-2
1.574107352E0,-1.542433538E-2,2.015853859E-2,1.725693047E-2
1.576232456E0,-1.053741761E-2,1.649334840E-2,1.481347065E-2
1.578357560E0,-6.872228812E-3,6.719512399E-3,1.725693047E-2
1.580482664E0,-5.650499370E-3,-3.237583488E-2,1.725693047E-2
1.582607768E0,-9.315688163E-3,-4.825831577E-2,1.847865991E-2
1.584732872E0,-1.053741761E-2,-2.626718581E-2,1.970038936E-2
1.586858029E0,-1.298087649E-2,-1.527161989E-2,2.214384824E-2
1.588983133E0,-1.664606482E-2,-1.282816008E-2,2.458730713E-2
1.591108237E0,-2.275471389E-2,-1.527161989E-2,1.847865991E-2
1.593233341E0,-1.420260593E-2,-4.337139800E-2,9.926552884E-3
1.595358445E0,-3.207040019E-3,-5.558869615E-2,1.725693047E-2
1.597483549E0,5.345067009E-3,-6.658425927E-2,2.336557768E-2
1.599608706E0,6.566796452E-3,-9.712749720E-2,1.725693047E-2
1.601733810E0,4.123337101E-3,-8.857539296E-2,1.481347065E-2
1.603858914E0,5.345067009E-3,-1.649334840E-2,1.603520103E-2
1.605984018E0,4.123337101E-3,2.871064469E-2,2.336557768E-2
1.608109122E0,-7.635809598E-4,1.771507785E-2,2.092211880E-2
1.610234227E0,5.345067009E-3,-6.719512399E-3,1.847865991E-2
1.612359331E0,1.145371422E-2,-2.260199748E-2,1.603520103E-2
1.614484487E0,1.267544460E-2,-3.237583488E-2,1.603520103E-2
1.616609591E0,1.511890348E-2,-3.970621154E-2,1.481347065E-2
1.618734695E0,6.566796452E-3,-3.726275265E-2,1.847865991E-2
1.620859799E0,-7.635809598E-4,1.649334840E-2,1.970038936E-2
1.622984904E0,-6.872228812E-3,5.681042373E-2,2.092211880E-2
1.625110008E0,-9.315688163E-3,5.436696485E-2,2.703076601E-2
1.627235112E0,-1.985310577E-3,2.504545636E-2,2.580903657E-2
1.629360268E0,4.123337101E-3,-1.771507785E-2,1.725693047E-2
1.631485372E0,1.023198478E-2,-4.092793912E-2,1.970038936E-2
1.633610477E0,1.511890348E-2,-2.138026804E-2,2.580903657E-2
1.635735581E0,1.389717404E-2,-1.893680729E-2,2.458730713E-2
1.637860685E0,4.123337101E-3,-1.404988952E-2,2.214384824E-2
1.639985789E0,-6.872228812E-3,5.070177838E-2,2.214384824E-2
1.642110945E0,-4.428769462E-3,9.346231073E-2,2.092211880E-2
1.644236049E0,5.345067009E-3,6.902772188E-2,3.069595434E-2
1.646361154E0,1.389717404E-2,1.404988952E-2,2.703076601E-2
1.648486258E0,2.000582218E-2,-2.260199748E-2,1.970038936E-2
1.650611362E0,2.367101051E-2,-2.626718581E-2,2.336557768E-2
1.652736466E0,2.489273995E-2,-1.649334840E-2,2.580903657E-2
1.654861570E0,9.010255337E-3,-2.138026804E-2,2.092211880E-2
1.656986727E0,-7.635809598E-4,3.054323839E-3,2.092211880E-2
1.659111831E0,-3.207040019E-3,7.024945319E-2,2.580903657E-2
1.661236935E0,-3.207040019E-3,9.468404204E-2,2.947422490E-2
1.663362039E0,-3.207040019E-3,6.414080411E-2,3.069595434E-2
1.665487143E0,-7.635809598E-4,3.726275265E-2,2.458730713E-2
1.667612247E0,2.901607659E-3,1.038470119E-2,1.725693047E-2
1.669737404E0,1.145371422E-2,-1.282816008E-2,2.092211880E-2
1.671862508E0,1.389717404E-2,-2.382372692E-2,2.458730713E-2
1.673987612E0,1.389717404E-2,-4.581485689E-2,1.970038936E-2
1.676112716E0,7.788525894E-3,-3.481929377E-2,1.603520103E-2
1.678237820E0,1.023198478E-2,1.404988952E-2,1.847865991E-2
1.680362924E0,7.788525894E-3,5.497782957E-3,2.336557768E-2
1.682488029E0,1.023198478E-2,-3.359756246E-2,1.847865991E-2
1.684613185E0,1.267544460E-2,-4.092793912E-2,1.725693047E-2
1.686738289E0,1.145371422E-2,-3.481929377E-2,1.481347065E-2
1.688863393E0,1.267544460E-2,-3.481929377E-2,1.725693047E-2
1.690988497E0,1.023198478E-2,-4.459312931E-2,1.603520103E-2
1.693113602E0,2.901607659E-3,-4.337139800E-2,1.114828233E-2
1.695238706E0,-5.650499370E-3,9.162971750E-3,1.114828233E-2
1.697363810E0,-9.315688163E-3,7.635809481E-2,1.725693047E-2
1.699488966E0,-1.298087649E-2,7.147117704E-2,2.214384824E-2
1.701614070E0,-9.315688163E-3,3.115410358E-2,1.847865991E-2
1.703739174E0,4.123337101E-3,-2.626718581E-2,1.359174121E-2
1.705864279E0,1.389717404E-2,-6.658425927E-2,1.725693047E-2
1.707989383E0,1.756236330E-2,-8.491020650E-2,2.336557768E-2
1.710114487E0,1.267544460E-2,-1.117882580E-1,2.336557768E-2
1.712239643E0,4.581485991E-4,-9.957095981E-2,1.847865991E-2
1.714364747E0,-9.315688163E-3,-1.649334840E-2,1.970038936E-2
1.716489852E0,-1.420260593E-2,3.237583488E-2,2.214384824E-2
1.718614956E0,-1.053741761E-2,9.162971750E-3,2.703076601E-2
1.720740060E0,-3.207040019E-3,-1.038470119E-2,2.092211880E-2
1.722865164E0,7.788525894E-3,-2.260199748E-2,1.970038936E-2
1.724990320E0,9.010255337E-3,-5.070177838E-2,1.847865991E-2
1.727115424E0,7.788525894E-3,-4.825831577E-2,1.847865991E-2
1.729240529E0,4.581485991E-4,-2.260199748E-2,2.092211880E-2
1.731365633E0,-9.315688163E-3,3.054323839E-3,1.970038936E-2
1.733490737E0,-1.542433538E-2,3.726275265E-2,2.092211880E-2
1.735615841E0,-1.298087649E-2,5.192350596E-2,2.703076601E-2
1.737740945E0,-8.093958721E-3,2.260199748E-2,2.947422490E-2
1.739866102E0,2.901607659E-3,-1.893680729E-2,2.214384824E-2
1.741991206E0,1.511890348E-2,-4.337139800E-2,1.847865991E-2
1.744116310E0,2.122755162E-2,-6.658425927E-2,2.214384824E-2
1.746241414E0,2.122755162E-2,-6.536252797E-2,2.580903657E-2
1.748366518E0,1.389717404E-2,-3.970621154E-2,2.336557768E-2
1.750491622E0,6.566796452E-3,-1.832594397E-3,1.970038936E-2
1.752616727E0,1.679878100E-3,4.214967042E-2,2.214384824E-2
1.754741883E0,2.901607659E-3,5.803215504E-2,2.703076601E-2
1.756866987E0,7.788525894E-3,3.726275265E-2,2.703076601E-2
1.758992091E0,1.389717404E-2,-5.497782957E-3,2.458730713E-2
1.761117195E0,1.756236330E-2,-4.337139800E-2,1.725693047E-2
1.763242299E0,2.000582218E-2,-3.970621154E-2,1.725693047E-2
1.765367404E0,2.000582218E-2,-3.970621154E-2,1.481347065E-2
1.767492560E0,1.267544460E-2,-3.848448023E-2,1.481347065E-2
1.769617664E0,2.901607659E-3,1.404988952E-2,1.725693047E-2
1.771742768E0,-3.207040019E-3,5.558869615E-2,1.725693047E-2
1.773867872E0,-3.207040019E-3,3.726275265E-2,2.336557768E-2
1.775992977E0,1.679878100E-3,1.282816008E-2,2.214384824E-2
1.778118081E0,7.788525894E-3,-6.108647794E-4,1.481347065E-2
1.780243289E0,1.023198478E-2,-3.604102135E-2,1.359174121E-2
1.782368341E0,1.145371422E-2,-5.681042373E-2,1.725693047E-2
1.784493445E0,1.023198478E-2,-4.581485689E-2,1.970038936E-2
1.786618549E0,-7.635809598E-4,-3.115410358E-2,1.847865991E-2
1.788743654E0,-1.298087649E-2,-1.832594397E-3,1.481347065E-2
1.790868758E0,-1.420260593E-2,4.703658819E-2,1.970038936E-2
1.792993862E0,-1.298087649E-2,6.658425927E-2,2.336557768E-2
1.795119018E0,-9.315688163E-3,5.558869615E-2,2.092211880E-2
1.797244122E0,-1.985310577E-3,4.092793912E-2,1.603520103E-2
1.799369227E0,4.123337101E-3,-1.832594397E-3,1.725693047E-2
1.801494331E0,1.145371422E-2,-3.970621154E-2,1.725693047E-2
1.803619435E0,1.389717404E-2,-3.359756246E-2,1.847865991E-2
1.805744539E0,4.123337101E-3,-4.276053514E-3,1.725693047E-2
1.807869695E0,-6.872228812E-3,3.970621154E-2,2.092211880E-2
1.809994799E0,-9.315688163E-3,6.902772188E-2,2.580903657E-2
1.812119904E0,-8.093958721E-3,5.558869615E-2,3.069595434E-2
1.814245008E0,-6.872228812E-3,2.626718581E-2,2.336557768E-2
1.816370112E0,4.581485991E-4,-3.054323839E-3,1.603520103E-2
1.818495216E0,1.756236330E-2,-2.748891525E-2,2.092211880E-2
1.820620320E0,2.367101051E-2,-7.024945319E-2,2.580903657E-2
1.822745477E0,2.000582218E-2,-7.635809481E-2,2.092211880E-2
1.824870581E0,1.267544460E-2,-3.481929377E-2,2.214384824E-2
1.826995685E0,6.566796452E-3,2.504545636E-2,2.336557768E-2
1.829120789E0,1.679878100E-3,5.803215504E-2,2.458730713E-2
1.831245893E0,-7.635809598E-4,3.604102135E-2,2.580903657E-2
1.833370997E0,5.345067009E-3,2.260199748E-2,2.214384824E-2
1.835496154E0,1.145371422E-2,6.108647794E-4,1.970038936E-2
1.837621258E0,1.267544460E-2,-4.825831577E-2,1.603520103E-2
1.839746362E0,1.878409274E-2,-7.513637096E-2,1.603520103E-2
1.841871466E0,1.634063199E-2,-7.757982612E-2,1.359174121E-2
1.843996570E0,2.901607659E-3,-3.359756246E-2,1.725693047E-2
1.846121674E0,-9.315688163E-3,3.237583488E-2,1.725693047E-2
1.848246779E0,-1.175914705E-2,3.604102135E-2,2.214384824E-2
1.850371935E0,-1.175914705E-2,-5.497782957E-3,1.847865991E-2
1.852497039E0,4.581485991E-4,-3.115410358E-2,8.704823442E-3
1.854622143E0,1.511890348E-2,-7.880155742E-2,1.237001177E-2
1.856747247E0,1.878409274E-2,-1.264490038E-1,1.603520103E-2
1.858872352E0,1.389717404E-2,-1.032361463E-1,1.114828233E-2
1.860997508E0,9.010255337E-3,-4.459312931E-2,1.481347065E-2
1.863122612E0,-8.093958721E-3,1.893680729E-2,1.847865991E-2
1.865247716E0,-2.519817278E-2,8.491020650E-2,1.237001177E-2
1.867372820E0,-2.031125315E-2,1.191186309E-1,1.359174121E-2
1.869497924E0,-4.428769462E-3,9.468404204E-2,2.214384824E-2
1.871623029E0,6.566796452E-3,2.871064469E-2,1.359174121E-2
1.873748133E0,1.267544460E-2,-2.015853859E-2,8.704823442E-3
1.875873237E0,2.122755162E-2,-3.115410358E-2,1.237001177E-2
1.877998393E0,1.878409274E-2,-3.848448023E-2,1.603520103E-2
1.880123497E0,4.123337101E-3,-6.719512399E-3,1.237001177E-2
1.882248602E0,-8.093958721E-3,6.291907281E-2,1.603520103E-2
1.884373706E0,-6.872228812E-3,1.007926911E-1,1.970038936E-2
1.886498810E0,-7.635809598E-4,6.780599058E-2,2.580903657E-2
1.888623914E0,1.679878100E-3,1.527161989E-2,1.970038936E-2
1.890749018E0,1.511890348E-2,-7.941242307E-3,1.114828233E-2
1.892874174E0,2.244928107E-2,-1.771507785E-2,1.481347065E-2
1.894999279E0,2.489273995E-2,-1.771507785E-2,2.092211880E-2
1.897124383E0,2.000582218E-2,-2.138026804E-2,1.847865991E-2
1.899249487E0,1.023198478E-2,2.015853859E-2,1.970038936E-2
1.901374591E0,4.581485991E-4,1.044578776E-1,2.092211880E-2
1.903499695E0,-3.207040019E-3,1.582139730E-1,2.092211880E-2
1.905624852E0,2.901607659E-3,1.325576603E-1,2.336557768E-2
1.907749956E0,7.788525894E-3,8.368847519E-2,2.458730713E-2
1.909875060E0,1.023198478E-2,3.237583488E-2,1.847865991E-2
1.912000164E0,1.267544460E-2,-1.649334840E-2,1.359174121E-2
1.914125268E0,1.756236330E-2,-5.558869615E-2,1.603520103E-2
1.916250372E0,1.267544460E-2,-6.536252797E-2,1.481347065E-2
1.918375529E0,-7.635809598E-4,-4.825831577E-2,1.359174121E-2
1.920500633E0,-1.298087649E-2,-6.719512399E-3,1.359174121E-2
1.922625737E0,-5.650499370E-3,3.481929377E-2,1.970038936E-2
1.924750841E0,4.123337101E-3,1.649334840E-2,2.092211880E-2
1.926875945E0,-7.635809598E-4,-2.382372692E-2,1.481347065E-2
1.929001102E0,1.679878100E-3,-7.941242307E-3,8.704823442E-3
1.931126206E0,7.788525894E-3,9.162971750E-3,1.359174121E-2
1.933251310E0,5.345067009E-3,-1.649334840E-2,1.481347065E-2
1.935376414E0,-9.315688163E-3,-2.871064469E-2,1.237001177E-2
1.937501518E0,-9.315688163E-3,3.054323839E-3,9.926552884E-3
1.939626622E0,-5.650499370E-3,3.359756246E-2,7.483093534E-3
1.941751727E0,-1.542433538E-2,3.359756246E-2,6.261364091E-3
1.943876831E0,-2.031125315E-2,3.359756246E-2,8.704823442E-3
1.946001987E0,-1.175914705E-2,1.649334840E-2,9.926552884E-3
1.948127091E0,-5.650499370E-3,-2.504545636E-2,6.261364091E-3
1.950252195E0,-6.872228812E-3,-6.902772188E-2,3.817904973E-3
1.952377299E0,-5.650499370E-3,-8.979712427E-2,5.039634649E-3
1.954502404E0,-1.985310577E-3,-8.491020650E-2,3.817904973E-3
1.956627508E0,-1.298087649E-2,-3.970621154E-2,7.483093534E-3
1.958752612E0,-2.275471389E-2,3.237583488E-2,8.704823442E-3
1.960877768E0,-2.764163166E-2,6.169734150E-2,1.114828233E-2
1.963002872E0,-2.397644334E-2,5.803215504E-2,1.237001177E-2
1.965127977E0,-1.664606482E-2,5.314523727E-2,7.483093534E-3
1.967253081E0,-8.093958721E-3,2.260199748E-2,1.374445739E-3
1.969378133E0,4.581485991E-4,-1.527161989E-2,7.483093534E-3
1.971503289E0,1.679878100E-3,-2.871064469E-2,1.481347065E-2
1.973628445E0,-3.207040019E-3,-2.382372692E-2,9.926552884E-3
1.975753549E0,-1.420260593E-2,1.649334840E-2,8.704823442E-3
1.977878654E0,-2.519817278E-2,8.857539296E-2,1.114828233E-2
1.980003758E0,-2.764163166E-2,9.224057943E-2,1.847865991E-2
1.982128862E0,-2.641990222E-2,3.848448023E-2,1.237001177E-2
1.984253966E0,-1.786779426E-2,1.527161989E-2,6.261364091E-3
1.986379122E0,-1.985310577E-3,-1.282816008E-2,6.261364091E-3
1.988504227E0,4.123337101E-3,-5.192350596E-2,8.704823442E-3
1.990629331E0,4.581485991E-4,-6.902772188E-2,7.483093534E-3
1.992754435E0,-6.872228812E-3,-1.771507785E-2,7.483093534E-3
1.994879539E0,-2.031125315E-2,5.925388262E-2,8.704823442E-3
1.997004643E0,-2.886336111E-2,1.020144150E-1,1.359174121E-2
1.999129747E0,-3.130681813E-2,1.069013327E-1,1.725693047E-2
2.001254904E0,-1.908952370E-2,6.291907281E-2,8.704823442E-3
2.003380008E0,-9.315688163E-3,3.054323839E-3,6.261364091E-3
2.005505112E0,-3.207040019E-3,-4.948004708E-2,5.039634649E-3
2.007630216E0,-3.207040019E-3,-7.024945319E-2,8.704823442E-3
2.009755320E0,-6.872228812E-3,-7.513637096E-2,8.704823442E-3
2.011880424E0,-2.519817278E-2,-4.703658819E-2,5.039634649E-3
2.014005581E0,-4.230238497E-2,2.993237413E-2,3.817904973E-3
2.016130685E0,-4.718930274E-2,8.124501258E-2,5.039634649E-3
2.018255789E0,-4.474584386E-2,7.757982612E-2,9.926552884E-3
2.020380893E0,-3.252854943E-2,4.948004708E-2,1.374445739E-3
2.022505997E0,-1.786779426E-2,-1.771507785E-2,-1.069013379E-3
2.024631102E0,-6.872228812E-3,-9.468404204E-2,-1.069013379E-3
2.026756206E0,-5.650499370E-3,-9.101885557E-2,-1.069013379E-3
2.028881362E0,-1.175914705E-2,-4.703658819E-2,-1.069013379E-3
2.031006466E0,-3.008509055E-2,6.108647794E-4,1.374445739E-3
2.033131570E0,-4.230238497E-2,7.635809481E-2,6.261364091E-3
2.035256674E0,-4.474584386E-2,1.191186309E-1,5.039634649E-3
2.037381779E0,-3.741546720E-2,7.391463965E-2,8.704823442E-3
2.039506883E0,-2.764163166E-2,1.160643063E-2,1.374445739E-3
2.041632039E0,-1.664606482E-2,-2.504545636E-2,-3.512472380E-3
2.043757143E0,-1.053741761E-2,-5.314523727E-2,-1.069013379E-3
2.045882247E0,-1.175914705E-2,-4.459312931E-2,2.596175298E-3
2.048007352E0,-1.908952370E-2,-1.160643063E-2,3.817904973E-3
2.050132456E0,-3.130681813E-2,2.382372692E-2,3.817904973E-3
2.052257560E0,-3.375028074E-2,8.857539296E-2,1.374445739E-3
2.054382716E0,-3.008509055E-2,1.337793916E-1,7.483093534E-3
2.056507820E0,-2.275471389E-2,9.590577334E-2,9.926552884E-3
2.058632924E0,-1.420260593E-2,4.276053514E-3,2.596175298E-3
2.060758029E0,-1.985310577E-3,-4.459312931E-2,-3.512472380E-3
2.062883133E0,6.566796452E-3,-3.970621154E-2,5.039634649E-3
2.065008237E0,2.901607659E-3,-5.436696485E-2,3.817904973E-3
2.067133341E0,-9.315688163E-3,-4.337139800E-2,2.596175298E-3
2.069258497E0,-1.786779426E-2,4.948004708E-2,7.483093534E-3
2.071383602E0,-3.008509055E-2,1.288924664E-1,1.237001177E-2
2.073508706E0,-3.863719851E-2,1.130099818E-1,1.359174121E-2
2.075633810E0,-2.764163166E-2,6.658425927E-2,7.483093534E-3
2.077758914E0,-9.315688163E-3,1.038470119E-2,3.817904973E-3
2.079884018E0,-1.985310577E-3,-5.925388262E-2,2.596175298E-3
2.082009122E0,-7.635809598E-4,-8.246674389E-2,2.596175298E-3
2.084134279E0,-7.635809598E-4,-6.291907281E-2,6.261364091E-3
2.086259435E0,-1.053741761E-2,-3.970621154E-2,7.483093534E-3
2.088384487E0,-2.641990222E-2,2.382372692E-2,5.039634649E-3
2.090509591E0,-2.886336111E-2,7.391463965E-2,3.817904973E-3
2.092634695E0,-1.664606482E-2,6.658425927E-2,8.704823442E-3
2.094759799E0,-3.207040019E-3,1.527161989E-2,7.483093534E-3
2.096884956E0,7.788525894E-3,-3.848448023E-2,1.527161949E-4
2.099010060E0,1.511890348E-2,-7.147117704E-2,1.374445739E-3
2.101135164E0,1.511890348E-2,-7.513637096E-2,1.527161949E-4
2.103260268E0,4.123337101E-3,-4.337139800E-2,1.527161949E-4
2.105385372E0,-1.542433538E-2,-1.832594397E-3,1.374445739E-3
2.107510477E0,-3.008509055E-2,6.047561392E-2,1.374445739E-3
2.109635581E0,-3.130681813E-2,8.491020650E-2,3.817904973E-3
2.111760737E0,-2.886336111E-2,4.581485689E-2,5.039634649E-3
2.113885841E0,-1.664606482E-2,-1.832594397E-3,-3.512472380E-3
2.116010945E0,-5.650499370E-3,-4.825831577E-2,-1.084284950E-2
2.118136049E0,1.679878100E-3,-7.391463965E-2,-5.955931731E-3
2.120261154E0,4.581485991E-4,-6.291907281E-2,1.527161949E-4
2.122386310E0,-9.315688163E-3,-5.925388262E-2,-1.069013379E-3
2.124511414E0,-1.786779426E-2,-5.070177838E-2,-4.734201822E-3
2.126636518E0,-2.153298259E-2,3.054323839E-3,-5.955931731E-3
2.128761622E0,-1.542433538E-2,4.948004708E-2,-1.069013379E-3
2.130886674E0,-1.664606482E-2,2.015853859E-2,2.596175298E-3
2.133011831E0,-1.053741761E-2,-3.726275265E-2,-8.399390616E-3
2.135136935E0,4.581485991E-4,-5.925388262E-2,-8.399390616E-3
2.137262091E0,2.901607659E-3,-7.147117704E-2,-2.290742937E-3
2.139387195E0,-6.872228812E-3,-6.658425927E-2,-4.734201822E-3
2.141512299E0,-1.908952370E-2,-3.604102135E-2,-9.621120058E-3
2.143637404E0,-2.519817278E-2,3.237583488E-2,-1.069013379E-3
2.145762508E0,-3.130681813E-2,8.002328873E-2,3.817904973E-3
2.147887612E0,-3.497200832E-2,7.391463965E-2,2.596175298E-3
2.150012716E0,-2.153298259E-2,3.359756246E-2,1.374445739E-3
2.152137820E0,-7.635809598E-4,-2.993237413E-2,-1.069013379E-3
2.154262977E0,1.389717404E-2,-7.024945319E-2,-4.734201822E-3
2.156388081E0,1.756236330E-2,-5.681042373E-2,-1.069013379E-3
2.158513185E0,1.634063199E-2,-4.214967042E-2,5.039634649E-3
2.160638289E0,6.566796452E-3,-4.459312931E-2,5.039634649E-3
2.162763393E0,-6.872228812E-3,1.038470119E-2,3.817904973E-3
2.164888497E0,-1.053741761E-2,6.536252797E-2,2.596175298E-3
2.167013602E0,-6.872228812E-3,4.948004708E-2,8.704823442E-3
2.169138758E0,1.679878100E-3,7.941242307E-3,5.039634649E-3
2.171263862E0,1.267544460E-2,-1.282816008E-2,-1.069013379E-3
2.173388966E0,1.756236330E-2,-4.581485689E-2,-1.069013379E-3
2.175514070E0,1.634063199E-2,-4.948004708E-2,-2.290742937E-3
2.177639174E0,7.788525894E-3,-1.404988952E-2,-1.069013379E-3
2.179764331E0,-8.093958721E-3,2.138026804E-2,2.596175298E-3
2.181889435E0,-1.908952370E-2,4.214967042E-2,1.527161949E-4
2.184014539E0,-1.908952370E-2,6.047561392E-2,3.817904973E-3
2.186139643E0,-9.315688163E-3,3.115410358E-2,3.817904973E-3
2.188264747E0,-7.635809598E-4,-2.748891525E-2,2.596175298E-3
2.190389852E0,9.010255337E-3,-6.536252797E-2,-1.084284950E-2
2.192514956E0,1.389717404E-2,-6.658425927E-2,-4.734201822E-3
2.194640112E0,1.389717404E-2,-3.970621154E-2,1.527161949E-4
2.196765216E0,1.679878100E-3,-1.038470119E-2,3.817904973E-3
2.198890320E0,-1.053741761E-2,1.649334840E-2,-3.512472380E-3
2.201015424E0,-1.786779426E-2,4.092793912E-2,-2.290742937E-3
2.203140529E0,-1.175914705E-2,4.337139800E-2,-2.290742937E-3
2.205265633E0,-4.428769462E-3,2.138026804E-2,1.527161949E-4
2.207390789E0,2.901607659E-3,-1.893680729E-2,-5.955931731E-3
2.209515893E0,9.010255337E-3,-3.970621154E-2,-8.399390616E-3
2.211640997E0,7.788525894E-3,-2.993237413E-2,-7.177661173E-3
2.213766102E0,5.345067009E-3,-1.160643063E-2,-2.290742937E-3
2.215891206E0,-3.207040019E-3,-1.893680729E-2,-9.621120058E-3
2.218016310E0,-1.298087649E-2,7.941242307E-3,-7.177661173E-3
2.220141466E0,-1.664606482E-2,7.024945319E-2,-2.290742937E-3
2.222266570E0,-1.542433538E-2,6.902772188E-2,-1.069013379E-3
2.224391674E0,-6.872228812E-3,2.382372692E-2,-1.069013379E-3
2.226516779E0,1.023198478E-2,-1.771507785E-2,-5.955931731E-3
2.228641883E0,2.367101051E-2,-5.803215504E-2,-8.399390616E-3
2.230766987E0,2.367101051E-2,-7.391463965E-2,-2.290742937E-3
2.232892091E0,2.122755162E-2,-5.803215504E-2,-3.512472380E-3
2.235017195E0,1.267544460E-2,-1.404988952E-2,1.374445739E-3
2.237142352E0,-4.428769462E-3,2.260199748E-2,1.527161949E-4
2.239267456E0,-1.542433538E-2,5.925388262E-2,-5.955931731E-3
2.241392560E0,-6.872228812E-3,6.291907281E-2,-2.290742937E-3
2.243517664E0,1.023198478E-2,9.162971750E-3,1.527161949E-4
2.245642768E0,2.367101051E-2,-5.314523727E-2,-8.399390616E-3
2.247767872E0,2.733619884E-2,-7.269290835E-2,-9.621120058E-3
2.249893029E0,2.489273995E-2,-4.948004708E-2,-4.734201822E-3
2.252018133E0,1.389717404E-2,-1.282816008E-2,-5.955931731E-3
2.254143237E0,-7.635809598E-4,1.282816008E-2,-5.955931731E-3
2.256268341E0,-6.872228812E-3,2.993237413E-2,-4.734201822E-3
2.258393445E0,-5.650499370E-3,2.871064469E-2,-1.069013379E-3
2.260518549E0,5.345067009E-3,3.054323839E-3,-3.512472380E-3
2.262643706E0,1.145371422E-2,-2.871064469E-2,-3.512472380E-3
2.264768810E0,1.878409274E-2,-5.070177838E-2,-9.621120058E-3
2.266893914E0,2.000582218E-2,-5.681042373E-2,-1.206457894E-2
2.269019018E0,1.756236330E-2,-2.504545636E-2,-5.955931731E-3
2.271144122E0,9.010255337E-3,1.832594397E-3,-1.069013379E-3
2.273269227E0,1.679878100E-3,-1.038470119E-2,-4.734201822E-3
2.275394331E0,-3.207040019E-3,6.108647794E-4,-1.084284950E-2
2.277519487E0,-7.635809598E-4,2.260199748E-2,-7.177661173E-3
2.279644591E0,2.901607659E-3,1.832594397E-3,-8.399390616E-3
2.281769695E0,9.010255337E-3,-1.649334840E-2,-7.177661173E-3
2.283894852E0,1.267544460E-2,-3.604102135E-2,-1.328630932E-2
2.286019904E0,1.511890348E-2,-3.848448023E-2,-1.084284950E-2
2.288145008E0,1.145371422E-2,-2.626718581E-2,-1.206457894E-2
2.290270164E0,5.345067009E-3,-1.527161989E-2,-1.328630932E-2
2.292395268E0,1.679878100E-3,-1.527161989E-2,-1.328630932E-2
2.294520372E0,-4.428769462E-3,1.160643063E-2,-9.621120058E-3
2.296645477E0,-9.315688163E-3,4.214967042E-2,-9.621120058E-3
2.298770581E0,-3.207040019E-3,2.748891525E-2,-3.512472380E-3
2.300895685E0,7.788525894E-3,-3.359756246E-2,-9.621120058E-3
2.303020789E0,1.756236330E-2,-5.925388262E-2,-1.572976820E-2
2.305145945E0,1.878409274E-2,-5.192350596E-2,-1.328630932E-2
2.307271049E0,1.511890348E-2,-4.459312931E-2,-7.177661173E-3
2.309396154E0,6.566796452E-3,-4.092793912E-2,-9.621120058E-3
2.311521258E0,-5.650499370E-3,-7.941242307E-3,-7.177661173E-3
2.313646362E0,-1.053741761E-2,2.626718581E-2,-1.084284950E-2
2.315771466E0,-1.985310577E-3,3.726275265E-2,-9.621120058E-3
2.317896622E0,5.345067009E-3,1.038470119E-2,-5.955931731E-3
2.320021727E0,1.878409274E-2,-2.382372692E-2,-1.328630932E-2
2.322146831E0,2.855792828E-2,-4.948004708E-2,-1.572976820E-2
2.324271935E0,2.855792828E-2,-3.848448023E-2,-8.399390616E-3
2.326397039E0,1.756236330E-2,-7.941242307E-3,-1.206457894E-2
2.328522143E0,1.023198478E-2,1.832594397E-3,-1.206457894E-2
2.330647247E0,5.345067009E-3,-1.832594397E-3,-1.328630932E-2
2.332772404E0,7.788525894E-3,-6.108647794E-4,-1.084284950E-2
2.334897508E0,1.023198478E-2,-6.108647794E-4,-8.399390616E-3
2.337022612E0,1.267544460E-2,-9.162971750E-3,-4.734201822E-3
2.339147716E0,1.634063199E-2,-2.871064469E-2,-1.572976820E-2
2.341272820E0,2.122755162E-2,-3.726275265E-2,-1.817322709E-2
2.343397924E0,2.489273995E-2,-2.260199748E-2,-8.399390616E-3
2.345523029E0,1.634063199E-2,-4.276053514E-3,-5.955931731E-3
2.347648185E0,7.788525894E-3,6.719512399E-3,-1.328630932E-2
2.349773289E0,5.345067009E-3,5.497782957E-3,-1.328630932E-2
2.351898393E0,9.010255337E-3,1.832594397E-3,-1.450803876E-2
2.354023497E0,1.389717404E-2,6.108647794E-4,-1.084284950E-2
2.356148602E0,2.000582218E-2,-6.719512399E-3,-1.084284950E-2
2.358273758E0,2.367101051E-2,-2.748891525E-2,-1.450803876E-2
2.360398862E0,2.122755162E-2,-3.848448023E-2,-1.328630932E-2
2.362523966E0,1.756236330E-2,-1.282816008E-2,-1.572976820E-2
2.364649070E0,1.023198478E-2,-4.276053514E-3,-1.572976820E-2
2.366774174E0,5.345067009E-3,-2.504545636E-2,-1.328630932E-2
2.368899279E0,4.581485991E-4,6.108647794E-4,-1.695149764E-2
2.371024383E0,-1.985310577E-3,2.260199748E-2,-1.450803876E-2
2.373149487E0,-1.985310577E-3,5.497782957E-3,-7.177661173E-3
2.375274643E0,5.345067009E-3,-1.038470119E-2,-9.621120058E-3
2.377399747E0,1.023198478E-2,-2.504545636E-2,-1.939495653E-2
2.379524852E0,1.511890348E-2,-3.726275265E-2,-1.817322709E-2
2.381649956E0,1.634063199E-2,-2.871064469E-2,-1.084284950E-2
2.383775060E0,1.145371422E-2,-1.282816008E-2,-1.328630932E-2
2.385900164E0,2.901607659E-3,7.941242307E-3,-1.206457894E-2
2.388025268E0,-1.985310577E-3,2.138026804E-2,-1.084284950E-2
2.390150424E0,2.901607659E-3,1.282816008E-2,-1.695149764E-2
2.392275529E0,1.145371422E-2,6.719512399E-3,-1.084284950E-2
2.394400633E0,1.756236330E-2,-1.282816008E-2,-1.084284950E-2
2.396525737E0,2.244928107E-2,-2.504545636E-2,-1.695149764E-2
2.398650841E0,2.367101051E-2,-6.719512399E-3,-1.572976820E-2
2.400775945E0,2.122755162E-2,6.719512399E-3,-1.328630932E-2
2.402901102E0,1.878409274E-2,-1.832594397E-3,-1.450803876E-2
2.405026206E0,1.634063199E-2,-1.404988952E-2,-1.572976820E-2
2.407151310E0,1.389717404E-2,-6.108647794E-4,-1.328630932E-2
2.409276414E0,1.145371422E-2,1.832594397E-3,-1.206457894E-2
2.411401518E0,1.756236330E-2,3.054323839E-3,-9.621120058E-3
2.413526674E0,2.244928107E-2,-1.527161989E-2,-1.450803876E-2
2.415651779E0,2.489273995E-2,-1.527161989E-2,-2.183841541E-2
2.417776935E0,2.611446939E-2,7.941242307E-3,-1.939495653E-2
2.419901987E0,2.855792828E-2,-5.497782957E-3,-7.177661173E-3
2.422027091E0,3.100138716E-2,-3.115410358E-2,-1.084284950E-2
2.424152195E0,2.611446939E-2,-2.138026804E-2,-1.572976820E-2
2.426277247E0,1.511890348E-2,3.054323839E-3,-1.572976820E-2
2.428402404E0,1.511890348E-2,2.138026804E-2,-1.328630932E-2
2.430527508E0,2.000582218E-2,7.941242307E-3,-1.328630932E-2
2.432652664E0,2.611446939E-2,-3.359756246E-2,-1.939495653E-2
2.434777768E0,3.344484791E-2,-5.436696485E-2,-2.183841541E-2
2.436902872E0,3.100138716E-2,-2.504545636E-2,-1.939495653E-2
2.439027977E0,2.611446939E-2,-1.527161989E-2,-1.572976820E-2
2.441153081E0,1.511890348E-2,-4.092793912E-2,-1.939495653E-2
2.443278237E0,1.023198478E-2,-6.108647794E-4,-2.183841541E-2
2.445403341E0,4.123337101E-3,5.192350596E-2,-1.450803876E-2
2.447528445E0,2.901607659E-3,1.527161989E-2,-1.084284950E-2
2.449653549E0,1.389717404E-2,-3.115410358E-2,-1.450803876E-2
2.451778654E0,2.489273995E-2,-3.115410358E-2,-2.183841541E-2
2.453903758E0,2.489273995E-2,-1.282816008E-2,-1.939495653E-2
2.456028914E0,1.878409274E-2,-1.771507785E-2,-1.939495653E-2
2.458154018E0,1.634063199E-2,3.054323839E-3,-1.817322709E-2
2.460279122E0,1.634063199E-2,1.404988952E-2,-1.206457894E-2
2.462404227E0,1.023198478E-2,5.497782957E-3,-1.450803876E-2
2.464529331E0,1.389717404E-2,4.276053514E-3,-2.183841541E-2
2.466654435E0,2.122755162E-2,-3.054323839E-3,-1.817322709E-2
2.468779539E0,2.977965772E-2,-1.771507785E-2,-1.572976820E-2
2.470904695E0,3.222311661E-2,-1.771507785E-2,-1.695149764E-2
2.473029799E0,3.222311661E-2,-2.871064469E-2,-1.939495653E-2
2.475154904E0,3.222311661E-2,-2.748891525E-2,-1.939495653E-2
2.477280008E0,2.611446939E-2,-6.719512399E-3,-1.695149764E-2
2.479405112E0,1.389717404E-2,9.162971750E-3,-1.817322709E-2
2.481530216E0,7.788525894E-3,1.282816008E-2,-1.572976820E-2
2.483655320E0,1.023198478E-2,9.162971750E-3,-1.450803876E-2
2.485780477E0,1.389717404E-2,4.276053514E-3,-1.450803876E-2
2.487905581E0,2.122755162E-2,-7.941242307E-3,-1.328630932E-2
2.490030685E0,2.611446939E-2,-2.748891525E-2,-1.817322709E-2
2.492155789E0,2.855792828E-2,-2.993237413E-2,-2.183841541E-2
2.494280893E0,2.977965772E-2,-1.282816008E-2,-1.817322709E-2
2.496405997E0,2.855792828E-2,-5.497782957E-3,-9.621120058E-3
2.498531154E0,2.244928107E-2,-2.871064469E-2,-1.328630932E-2
2.500656258E0,1.756236330E-2,-2.382372692E-2,-1.817322709E-2
2.502781362E0,2.367101051E-2,-3.054323839E-3,-1.695149764E-2
2.504906466E0,2.611446939E-2,-1.527161989E-2,-1.084284950E-2
2.507031570E0,2.367101051E-2,-2.748891525E-2,-1.817322709E-2
2.509156674E0,2.244928107E-2,-1.893680729E-2,-1.939495653E-2
2.511281779E0,2.244928107E-2,-2.382372692E-2,-1.817322709E-2
2.513406935E0,2.367101051E-2,-3.481929377E-2,-2.061668597E-2
2.515532039E0,1.634063199E-2,-1.160643063E-2,-2.183841541E-2
2.517657143E0,7.788525894E-3,1.038470119E-2,-2.061668597E-2
2.519782247E0,2.901607659E-3,2.626718581E-2,-1.572976820E-2
2.521907352E0,1.679878100E-3,3.970621154E-2,-1.817322709E-2
2.524032456E0,1.145371422E-2,1.527161989E-2,-1.572976820E-2
2.526157612E0,2.733619884E-2,-3.359756246E-2,-1.939495653E-2
2.528282716E0,3.344484791E-2,-4.459312931E-2,-2.672533318E-2
2.530407820E0,2.611446939E-2,-7.941242307E-3,-2.061668597E-2
2.532532924E0,2.000582218E-2,6.719512399E-3,-1.572976820E-2
2.534658029E0,1.878409274E-2,-1.160643063E-2,-1.939495653E-2
2.536783185E0,1.511890348E-2,6.108647794E-4,-1.695149764E-2
2.538908289E0,1.023198478E-2,1.160643063E-2,-1.939495653E-2
2.541033393E0,1.878409274E-2,-5.497782957E-3,-2.061668597E-2
2.543158497E0,2.733619884E-2,-5.497782957E-3,-1.817322709E-2
2.545283602E0,2.611446939E-2,-4.276053514E-3,-1.817322709E-2
2.547408706E0,2.122755162E-2,-6.719512399E-3,-2.061668597E-2
2.549533810E0,2.000582218E-2,-3.054323839E-3,-2.183841541E-2
2.551658914E0,2.244928107E-2,6.719512399E-3,-2.183841541E-2
2.553784070E0,1.878409274E-2,5.497782957E-3,-1.939495653E-2
2.555909174E0,1.389717404E-2,-9.162971750E-3,-1.939495653E-2
2.558034279E0,1.511890348E-2,1.771507785E-2,-1.817322709E-2
2.560159383E0,1.145371422E-2,3.115410358E-2,-1.328630932E-2
2.562284487E0,1.389717404E-2,-3.054323839E-3,-1.206457894E-2
2.564409591E0,2.367101051E-2,-3.237583488E-2,-2.306014486E-2
2.566534695E0,3.344484791E-2,-4.459312931E-2,-2.306014486E-2
2.568659799E0,3.222311661E-2,-2.748891525E-2,-1.695149764E-2
2.570784956E0,2.244928107E-2,-5.497782957E-3,-1.084284950E-2
2.572910060E0,1.267544460E-2,6.108647794E-4,-1.328630932E-2
2.575035164E0,1.267544460E-2,4.276053514E-3,-1.450803876E-2
2.577160268E0,9.010255337E-3,-6.108647794E-4,-1.328630932E-2
2.579285372E0,1.389717404E-2,1.832594397E-3,-1.817322709E-2
2.581410529E0,1.878409274E-2,-1.832594397E-3,-1.328630932E-2
2.583535633E0,2.122755162E-2,-1.282816008E-2,-1.695149764E-2
2.585660789E0,2.367101051E-2,-3.359756246E-2,-2.061668597E-2
2.587785841E0,2.244928107E-2,-1.404988952E-2,-1.939495653E-2
2.589910945E0,1.267544460E-2,2.993237413E-2,-1.695149764E-2
2.592036049E0,5.345067009E-3,1.527161989E-2,-2.061668597E-2
2.594161154E0,1.145371422E-2,-4.276053514E-3,-1.695149764E-2
2.596286258E0,1.634063199E-2,-4.276053514E-3,-1.695149764E-2
2.598411414E0,1.878409274E-2,-1.038470119E-2,-1.328630932E-2
2.600536518E0,2.122755162E-2,-1.527161989E-2,-1.450803876E-2
2.602661622E0,2.122755162E-2,-2.015853859E-2,-2.061668597E-2
2.604786727E0,1.756236330E-2,-2.260199748E-2,-2.061668597E-2
2.606911831E0,1.756236330E-2,-1.832594397E-3,-2.183841541E-2
2.609036935E0,1.511890348E-2,-6.719512399E-3,-1.695149764E-2
2.611162143E0,1.511890348E-2,-1.893680729E-2,-1.817322709E-2
2.613287195E0,9.010255337E-3,6.719512399E-3,-1.939495653E-2
2.615412299E0,1.679878100E-3,3.970621154E-2,-2.061668597E-2
2.617537404E0,6.566796452E-3,3.115410358E-2,-2.061668597E-2
2.619662508E0,1.756236330E-2,7.941242307E-3,-1.572976820E-2
2.621787612E0,2.977965772E-2,-2.504545636E-2,-2.428187430E-2
2.623912768E0,3.222311661E-2,-3.359756246E-2,-2.306014486E-2
2.626037872E0,2.733619884E-2,-1.038470119E-2,-2.428187430E-2
2.628162977E0,1.511890348E-2,1.771507785E-2,-2.061668597E-2
2.630288081E0,1.679878100E-3,1.893680729E-2,-1.939495653E-2
2.632413185E0,4.123337101E-3,6.719512399E-3,-2.061668597E-2
2.634538289E0,7.788525894E-3,1.160643063E-2,-1.695149764E-2
2.636663393E0,1.267544460E-2,1.282816008E-2,-1.572976820E-2
2.638788549E0,1.511890348E-2,-1.527161989E-2,-1.695149764E-2
2.640913654E0,1.756236330E-2,-2.626718581E-2,-2.306014486E-2
2.643038758E0,1.511890348E-2,-1.832594397E-3,-2.306014486E-2
2.645163862E0,1.389717404E-2,9.162971750E-3,-1.450803876E-2
2.647288966E0,9.010255337E-3,-6.719512399E-3,-1.328630932E-2
2.649414070E0,4.123337101E-3,1.832594397E-3,-2.061668597E-2
2.651539227E0,4.123337101E-3,1.282816008E-2,-1.450803876E-2
2.653664331E0,1.145371422E-2,1.160643063E-2,-1.450803876E-2
2.655789435E0,1.756236330E-2,-6.719512399E-3,-1.817322709E-2
2.657914539E0,2.000582218E-2,-2.138026804E-2,-1.450803876E-2
2.660039643E0,2.122755162E-2,-1.282816008E-2,-1.450803876E-2
2.662164747E0,1.634063199E-2,-1.893680729E-2,-1.939495653E-2
2.664289904E0,1.511890348E-2,-4.276053514E-3,-2.306014486E-2
2.666415008E0,9.010255337E-3,1.527161989E-2,-1.450803876E-2
2.668540112E0,5.345067009E-3,1.038470119E-2,-1.695149764E-2
2.670665216E0,4.581485991E-4,1.282816008E-2,-1.695149764E-2
2.672790320E0,4.123337101E-3,2.260199748E-2,-1.572976820E-2
2.674915424E0,1.267544460E-2,-6.108647794E-4,-1.328630932E-2
2.677040529E0,2.367101051E-2,-3.237583488E-2,-1.695149764E-2
2.679165685E0,2.733619884E-2,-3.359756246E-2,-2.183841541E-2
2.681290789E0,2.000582218E-2,-1.038470119E-2,-1.695149764E-2
2.683415893E0,9.010255337E-3,4.276053514E-3,-1.695149764E-2
2.685540997E0,6.566796452E-3,5.497782957E-3,-1.817322709E-2
2.687666102E0,6.566796452E-3,7.941242307E-3,-1.572976820E-2
2.689791206E0,4.123337101E-3,1.527161989E-2,-1.817322709E-2
2.691916310E0,6.566796452E-3,1.649334840E-2,-2.061668597E-2
2.694041466E0,1.145371422E-2,2.138026804E-2,-1.572976820E-2
2.696166570E0,1.267544460E-2,4.276053514E-3,-1.695149764E-2
2.698291674E0,2.000582218E-2,-2.138026804E-2,-2.061668597E-2
2.700416779E0,2.367101051E-2,-2.626718581E-2,-2.306014486E-2
2.702541883E0,1.511890348E-2,5.497782957E-3,-2.183841541E-2
2.704666987E0,4.581485991E-4,3.237583488E-2,-2.183841541E-2
2.706792143E0,4.581485991E-4,1.649334840E-2,-2.061668597E-2
2.708917247E0,6.566796452E-3,-4.276053514E-3,-1.939495653E-2
2.711042352E0,6.566796452E-3,4.276053514E-3,-1.939495653E-2
2.713167456E0,1.023198478E-2,7.941242307E-3,-1.695149764E-2
2.715292560E0,9.010255337E-3,1.832594397E-3,-2.061668597E-2
2.717417664E0,1.145371422E-2,-1.771507785E-2,-2.428187430E-2
2.719542768E0,1.511890348E-2,-1.038470119E-2,-2.061668597E-2
2.721667924E0,1.023198478E-2,3.054323839E-3,-1.695149764E-2
2.723793029E0,4.123337101E-3,1.038470119E-2,-1.939495653E-2
2.725918133E0,-3.207040019E-3,1.282816008E-2,-1.817322709E-2
2.728043237E0,-1.985310577E-3,5.497782957E-3,-1.939495653E-2
2.730168341E0,2.901607659E-3,1.527161989E-2,-1.817322709E-2
2.732293445E0,9.010255337E-3,9.162971750E-3,-1.817322709E-2
2.734418602E0,1.145371422E-2,-1.527161989E-2,-1.939495653E-2
2.736543706E0,1.389717404E-2,-1.282816008E-2,-2.061668597E-2
2.738668810E0,1.145371422E-2,-4.276053514E-3,-2.183841541E-2
2.740793914E0,5.345067009E-3,5.497782957E-3,-2.183841541E-2
2.742919018E0,1.679878100E-3,1.527161989E-2,-2.183841541E-2
2.745044122E0,-4.428769462E-3,1.893680729E-2,-1.572976820E-2
2.747169279E0,-4.428769462E-3,4.276053514E-3,-1.939495653E-2
2.749294383E0,-7.635809598E-4,6.719512399E-3,-1.695149764E-2
2.751419487E0,2.901607659E-3,1.160643063E-2,-1.084284950E-2
2.753544591E0,5.345067009E-3,-7.941242307E-3,-2.061668597E-2
2.755669695E0,7.788525894E-3,-2.260199748E-2,-2.428187430E-2
2.757794799E0,5.345067009E-3,-1.038470119E-2,-1.450803876E-2
2.759919904E0,1.679878100E-3,1.832594397E-3,-1.695149764E-2
2.762045060E0,-5.650499370E-3,1.038470119E-2,-1.572976820E-2
2.764170164E0,-1.053741761E-2,9.162971750E-3,-1.450803876E-2
2.766295268E0,-1.053741761E-2,1.649334840E-2,-1.572976820E-2
2.768420372E0,-5.650499370E-3,2.138026804E-2,-2.061668597E-2
2.770545477E0,-3.207040019E-3,1.527161989E-2,-1.328630932E-2
2.772670581E0,6.566796452E-3,-1.527161989E-2,-1.817322709E-2
2.774795685E0,1.145371422E-2,-3.359756246E-2,-2.183841541E-2
2.776920841E0,7.788525894E-3,-3.054323839E-3,-2.183841541E-2
2.779045945E0,-4.428769462E-3,1.527161989E-2,-1.695149764E-2
2.781171049E0,-6.872228812E-3,7.941242307E-3,-1.695149764E-2
2.783296154E0,-8.093958721E-3,-1.771507785E-2,-2.061668597E-2
2.785421258E0,-4.428769462E-3,-6.719512399E-3,-1.695149764E-2
2.787546362E0,-5.650499370E-3,1.038470119E-2,-1.328630932E-2
2.789671518E0,-6.872228812E-3,-4.276053514E-3,-1.572976820E-2
2.791796622E0,-6.872228812E-3,-2.382372692E-2,-2.550360374E-2
2.793921727E0,-3.207040019E-3,-7.941242307E-3,-1.939495653E-2
2.796046831E0,-5.650499370E-3,1.282816008E-2,-1.817322709E-2
2.798171935E0,-1.175914705E-2,1.404988952E-2,-1.572976820E-2
2.800297039E0,-1.420260593E-2,-6.108647794E-4,-1.939495653E-2
2.802422143E0,-1.298087649E-2,-1.832594397E-3,-1.939495653E-2
2.804547299E0,-1.420260593E-2,1.038470119E-2,-2.183841541E-2
2.806672404E0,-1.175914705E-2,3.359756246E-2,-1.695149764E-2
2.808797508E0,-8.093958721E-3,1.160643063E-2,-1.572976820E-2
2.810922612E0,4.123337101E-3,-2.993237413E-2,-2.183841541E-2
2.813047716E0,1.267544460E-2,-3.237583488E-2,-2.672533318E-2
2.815172820E0,4.581485991E-4,4.276053514E-3,-2.183841541E-2
2.817297977E0,-1.053741761E-2,1.832594397E-3,-2.306014486E-2
2.819423081E0,-1.298087649E-2,-6.719512399E-3,-2.306014486E-2
2.821548185E0,-2.031125315E-2,1.649334840E-2,-1.695149764E-2
2.823673289E0,-2.641990222E-2,4.092793912E-2,-1.572976820E-2
2.825798393E0,-2.275471389E-2,1.527161989E-2,-1.572976820E-2
2.827923497E0,-1.175914705E-2,-1.893680729E-2,-1.572976820E-2
2.830048602E0,-8.093958721E-3,-2.382372692E-2,-2.183841541E-2
2.832173758E0,-8.093958721E-3,-9.162971750E-3,-1.450803876E-2
2.834298862E0,-1.786779426E-2,3.054323839E-3,-1.328630932E-2
2.836423966E0,-2.275471389E-2,1.038470119E-2,-1.572976820E-2
2.838549070E0,-1.908952370E-2,7.941242307E-3,-1.572976820E-2
2.840674174E0,-1.786779426E-2,3.054323839E-3,-1.206457894E-2
2.842799279E0,-1.542433538E-2,-6.719512399E-3,-1.695149764E-2
2.844924435E0,-1.175914705E-2,-1.832594397E-3,-1.450803876E-2
2.847049539E0,-6.872228812E-3,-9.162971750E-3,-1.206457894E-2
2.849174643E0,-4.428769462E-3,-2.504545636E-2,-1.450803876E-2
2.851299747E0,-8.093958721E-3,-2.382372692E-2,-2.061668597E-2
2.853424852E0,-1.542433538E-2,6.108647794E-4,-1.572976820E-2
2.855549956E0,-2.275471389E-2,-1.832594397E-3,-1.450803876E-2
2.857675060E0,-3.008509055E-2,-5.497782957E-3,-1.450803876E-2
2.859800216E0,-3.375028074E-2,6.108647794E-4,-1.450803876E-2
2.861925320E0,-3.252854943E-2,2.015853859E-2,-9.621120058E-3
2.864050424E0,-3.130681813E-2,2.138026804E-2,-1.206457894E-2
2.866175529E0,-2.886336111E-2,1.832594397E-3,-1.695149764E-2
2.868300633E0,-2.031125315E-2,-1.038470119E-2,-1.695149764E-2
2.870425737E0,-1.053741761E-2,-1.038470119E-2,-1.939495653E-2
2.872550893E0,-1.175914705E-2,-6.719512399E-3,-1.450803876E-2
2.874675997E0,-1.542433538E-2,-1.527161989E-2,-1.572976820E-2
2.876801102E0,-1.420260593E-2,-1.649334840E-2,-1.817322709E-2
2.878926206E0,-2.031125315E-2,1.282816008E-2,-1.450803876E-2
2.881051310E0,-2.275471389E-2,1.527161989E-2,-1.450803876E-2
2.883176414E0,-1.542433538E-2,-5.497782957E-3,-1.328630932E-2
2.885301518E0,-1.175914705E-2,-1.649334840E-2,-1.695149764E-2
2.887426674E0,-1.053741761E-2,-2.626718581E-2,-2.183841541E-2
2.889551779E0,-1.664606482E-2,-1.649334840E-2,-1.939495653E-2
2.891676883E0,-2.519817278E-2,6.719512399E-3,-2.183841541E-2
2.893801987E0,-3.619373962E-2,1.282816008E-2,-1.939495653E-2
2.895927091E0,-4.108065739E-2,2.626718581E-2,-1.695149764E-2
2.898052247E0,-3.741546720E-2,2.993237413E-2,-1.572976820E-2
2.900177352E0,-2.764163166E-2,-6.719512399E-3,-1.939495653E-2
2.902302456E0,-1.908952370E-2,-1.771507785E-2,-1.572976820E-2
2.904427560E0,-1.786779426E-2,-1.404988952E-2,-2.061668597E-2
2.906552664E0,-1.664606482E-2,-2.504545636E-2,-2.061668597E-2
2.908677768E0,-1.786779426E-2,-2.748891525E-2,-1.084284950E-2
2.910802872E0,-2.031125315E-2,-1.893680729E-2,-1.817322709E-2
2.912928029E0,-2.886336111E-2,-1.038470119E-2,-1.450803876E-2
2.915053133E0,-3.252854943E-2,-1.038470119E-2,-1.206457894E-2
2.917178237E0,-3.619373962E-2,1.160643063E-2,-1.695149764E-2
2.919303341E0,-3.863719851E-2,1.404988952E-2,-1.450803876E-2
2.921428445E0,-3.252854943E-2,3.054323839E-3,-1.084284950E-2
2.923553549E0,-2.153298259E-2,-1.771507785E-2,-1.328630932E-2
2.925678654E0,-1.908952370E-2,-2.260199748E-2,-1.939495653E-2
2.927803758E0,-2.153298259E-2,-5.497782957E-3,-1.817322709E-2
2.929928914E0,-2.519817278E-2,1.160643063E-2,-1.328630932E-2
2.932054018E0,-3.008509055E-2,5.497782957E-3,-1.328630932E-2
2.934179122E0,-3.252854943E-2,-6.108647794E-4,-1.328630932E-2
2.936304227E0,-2.641990222E-2,3.054323839E-3,-1.206457894E-2
2.938429331E0,-2.275471389E-2,-6.108647794E-4,-9.621120058E-3
2.940554435E0,-2.397644334E-2,-9.162971750E-3,-1.206457894E-2
2.942679591E0,-2.153298259E-2,-1.527161989E-2,-1.572976820E-2
2.944804695E0,-1.542433538E-2,-1.404988952E-2,-1.450803876E-2
2.946929799E0,-1.420260593E-2,-1.771507785E-2,-1.328630932E-2
2.949054904E0,-1.786779426E-2,-1.527161989E-2,-1.084284950E-2
2.951180008E0,-2.275471389E-2,-1.282816008E-2,-1.450803876E-2
2.953305112E0,-2.519817278E-2,-1.527161989E-2,-1.695149764E-2
2.955430268E0,-2.641990222E-2,6.108647794E-4,-1.328630932E-2
2.957555372E0,-2.519817278E-2,1.404988952E-2,-1.084284950E-2
2.959680477E0,-2.519817278E-2,-1.282816008E-2,-1.328630932E-2
2.961805581E0,-1.786779426E-2,-1.893680729E-2,-1.572976820E-2
2.963930685E0,-1.664606482E-2,-1.160643063E-2,-1.939495653E-2
2.966055789E0,-1.542433538E-2,-1.527161989E-2,-1.695149764E-2
2.968180945E0,-2.275471389E-2,-1.527161989E-2,-1.939495653E-2
2.970306102E0,-3.375028074E-2,1.527161989E-2,-1.695149764E-2
2.972431154E0,-3.497200832E-2,2.504545636E-2,-1.084284950E-2
2.974556258E0,-3.008509055E-2,-1.832594397E-3,-1.450803876E-2
2.976681362E0,-2.519817278E-2,-1.527161989E-2,-1.695149764E-2
2.978806466E0,-2.031125315E-2,-1.649334840E-2,-1.695149764E-2
2.980931622E0,-1.664606482E-2,-2.260199748E-2,-1.572976820E-2
2.983056727E0,-1.542433538E-2,-2.748891525E-2,-1.328630932E-2
2.985181831E0,-1.664606482E-2,-3.604102135E-2,-1.328630932E-2
2.987306935E0,-2.153298259E-2,-1.160643063E-2,-1.328630932E-2
2.989432039E0,-3.008509055E-2,2.260199748E-2,-9.621120058E-3
2.991557143E0,-3.497200832E-2,1.893680729E-2,-8.399390616E-3
2.993682247E0,-2.764163166E-2,-6.108647794E-4,-1.206457894E-2
2.995807404E0,-2.031125315E-2,7.941242307E-3,-1.206457894E-2
2.997932508E0,-1.664606482E-2,1.649334840E-2,-1.084284950E-2
3.000057612E0,-5.650499370E-3,-1.771507785E-2,-1.328630932E-2
3.002182716E0,2.901607659E-3,-3.970621154E-2,-1.817322709E-2
3.004307820E0,-5.650499370E-3,-2.015853859E-2,-1.695149764E-2
3.006432924E0,-1.908952370E-2,7.941242307E-3,-1.206457894E-2
3.008558029E0,-2.153298259E-2,7.941242307E-3,-5.955931731E-3
3.010683185E0,-2.153298259E-2,-1.649334840E-2,-8.399390616E-3
3.012808289E0,-1.786779426E-2,-3.237583488E-2,-1.572976820E-2
3.014933393E0,-1.908952370E-2,6.108647794E-4,-9.621120058E-3
3.017058497E0,-1.664606482E-2,4.276053514E-3,-5.955931731E-3
3.019183602E0,-1.420260593E-2,-3.237583488E-2,-1.572976820E-2
3.021308706E0,-8.093958721E-3,-3.359756246E-2,-1.572976820E-2
3.023433810E0,-8.093958721E-3,-1.832594397E-3,-8.399390616E-3
3.025558966E0,-2.031125315E-2,9.162971750E-3,-8.399390616E-3
3.027684070E0,-2.397644334E-2,6.108647794E-4,-1.206457894E-2
3.029809174E0,-1.908952370E-2,-1.649334840E-2,-1.206457894E-2
3.031934279E0,-1.908952370E-2,-5.497782957E-3,-1.206457894E-2
3.034059383E0,-2.275471389E-2,1.282816008E-2,-9.621120058E-3
3.036184539E0,-1.420260593E-2,-1.282816008E-2,-9.621120058E-3
3.038309643E0,-6.872228812E-3,-3.848448023E-2,-1.695149764E-2
3.040434747E0,-9.315688163E-3,-2.138026804E-2,-1.939495653E-2
3.042559852E0,-1.908952370E-2,6.719512399E-3,-1.572976820E-2
3.044684956E0,-2.153298259E-2,3.054323839E-3,-1.328630932E-2
3.046810060E0,-2.275471389E-2,-6.719512399E-3,-1.328630932E-2
3.048935164E0,-2.519817278E-2,6.108647794E-4,-1.206457894E-2
3.051060268E0,-2.641990222E-2,-4.276053514E-3,-1.572976820E-2
3.053185424E0,-2.764163166E-2,4.276053514E-3,-1.206457894E-2
3.055310529E0,-2.275471389E-2,-5.497782957E-3,-1.084284950E-2
3.057435633E0,-1.420260593E-2,-2.260199748E-2,-1.328630932E-2
3.059560737E0,-1.053741761E-2,-1.649334840E-2,-1.572976820E-2
3.061685841E0,-1.786779426E-2,3.054323839E-3,-9.621120058E-3
3.063810945E0,-1.786779426E-2,-1.832594397E-3,-1.328630932E-2
3.065936102E0,-1.542433538E-2,-1.404988952E-2,-1.328630932E-2
3.068061206E0,-2.153298259E-2,-1.832594397E-3,-1.206457894E-2
3.070186310E0,-2.641990222E-2,1.404988952E-2,-1.206457894E-2
3.072311414E0,-1.664606482E-2,1.832594397E-3,-5.955931731E-3
3.074436466E0,-6.872228812E-3,-1.771507785E-2,-1.084284950E-2
3.076561622E0,-5.650499370E-3,-1.771507785E-2,-1.817322709E-2
3.078686727E0,-8.093958721E-3,-6.108647794E-4,-1.328630932E-2
3.080811883E0,-1.175914705E-2,1.832594397E-3,-1.450803876E-2
3.082936987E0,-1.664606482E-2,6.719512399E-3,-1.206457894E-2
3.085062091E0,-1.786779426E-2,3.054323839E-3,-5.955931731E-3
3.087187195E0,-2.153298259E-2,-4.276053514E-3,-9.621120058E-3
3.089312299E0,-2.519817278E-2,7.941242307E-3,-1.328630932E-2
3.091437404E0,-2.886336111E-2,2.871064469E-2,-7.177661173E-3
3.093562560E0,-2.275471389E-2,-7.941242307E-3,-7.177661173E-3
3.095687664E0,-6.872228812E-3,-3.726275265E-2,-1.450803876E-2
3.097812768E0,-5.650499370E-3,-2.748891525E-2,-1.206457894E-2
3.099937872E0,-1.786779426E-2,3.054323839E-3,-8.399390616E-3
3.102062977E0,-2.275471389E-2,-9.162971750E-3,-1.206457894E-2
3.104188081E0,-2.153298259E-2,-1.527161989E-2,-9.621120058E-3
3.106313237E0,-2.641990222E-2,-5.497782957E-3,-9.621120058E-3
3.108438341E0,-2.519817278E-2,-6.108647794E-4,-7.177661173E-3
3.110563445E0,-2.153298259E-2,-5.497782957E-3,-5.955931731E-3
3.112688549E0,-1.786779426E-2,-1.527161989E-2,-9.621120058E-3
3.114813654E0,-1.420260593E-2,-2.015853859E-2,-1.328630932E-2
3.116938758E0,-1.175914705E-2,-1.771507785E-2,-1.695149764E-2
3.119063862E0,-1.786779426E-2,1.038470119E-2,-9.621120058E-3
3.121189018E0,-2.397644334E-2,2.015853859E-2,-9.621120058E-3
3.123314122E0,-1.908952370E-2,-5.497782957E-3,-1.084284950E-2
3.125439227E0,-1.786779426E-2,-9.162971750E-3,-9.621120058E-3
3.127564331E0,-2.519817278E-2,7.941242307E-3,-1.206457894E-2
3.129689435E0,-2.519817278E-2,7.941242307E-3,-8.399390616E-3
3.131814539E0,-1.542433538E-2,-1.771507785E-2,-5.955931731E-3
3.133939643E0,-5.650499370E-3,-4.337139800E-2,-9.621120058E-3
3.136064799E0,-1.985310577E-3,-3.604102135E-2,-1.084284950E-2
3.138189904E0,-1.175914705E-2,-1.160643063E-2,-1.084284950E-2
3.140315008E0,-2.153298259E-2,1.832594397E-3,-1.450803876E-2
3.142440112E0,-1.908952370E-2,-6.719512399E-3,-9.621120058E-3
3.144565216E0,-1.786779426E-2,-1.038470119E-2,-1.084284950E-2
3.146690320E0,-2.275471389E-2,5.497782957E-3,-1.084284950E-2
3.148815477E0,-1.664606482E-2,1.832594397E-3,-9.621120058E-3
3.150940581E0,-6.872228812E-3,-1.771507785E-2,-1.084284950E-2
3.153065685E0,-6.872228812E-3,-1.160643063E-2,-1.695149764E-2
3.155190789E0,-1.175914705E-2,7.941242307E-3,-1.695149764E-2
3.157315893E0,-1.053741761E-2,6.719512399E-3,-1.328630932E-2
3.159440997E0,-1.420260593E-2,-6.108647794E-4,-1.206457894E-2
3.161566102E0,-2.153298259E-2,-3.054323839E-3,-1.450803876E-2
3.163691258E0,-2.275471389E-2,5.497782957E-3,-1.450803876E-2
3.165816362E0,-2.153298259E-2,1.832594397E-3,-1.084284950E-2
3.167941466E0,-1.664606482E-2,-9.162971750E-3,-1.206457894E-2
3.170066570E0,-1.420260593E-2,-1.527161989E-2,-1.206457894E-2
3.172191674E0,-9.315688163E-3,-1.771507785E-2,-1.328630932E-2
3.174316779E0,-3.207040019E-3,-1.771507785E-2,-1.328630932E-2
3.176441935E0,-4.428769462E-3,-2.138026804E-2,-1.206457894E-2
3.178567039E0,-8.093958721E-3,-9.162971750E-3,-1.450803876E-2
3.180692143E0,-1.420260593E-2,4.276053514E-3,-1.328630932E-2
3.182817247E0,-2.031125315E-2,2.015853859E-2,-8.399390616E-3
3.184942352E0,-1.786779426E-2,1.160643063E-2,-1.084284950E-2
3.187067456E0,-4.428769462E-3,-6.719512399E-3,-9.621120058E-3
3.189192560E0,2.901607659E-3,-1.404988952E-2,-1.206457894E-2
3.191317716E0,1.679878100E-3,-1.893680729E-2,-1.939495653E-2
3.193442820E0,-7.635809598E-4,-9.162971750E-3,-1.572976820E-2
3.195567924E0,-3.207040019E-3,1.404988952E-2,-1.084284950E-2
3.197693029E0,4.581485991E-4,-1.404988952E-2,-1.328630932E-2
3.199818133E0,2.901607659E-3,-2.748891525E-2,-1.206457894E-2
3.201943237E0,-5.650499370E-3,-4.276053514E-3,-1.450803876E-2
3.204068393E0,-1.175914705E-2,3.054323839E-3,-1.206457894E-2
3.206193497E0,4.581485991E-4,-2.138026804E-2,-9.621120058E-3
3.208318602E0,1.267544460E-2,-3.359756246E-2,-1.084284950E-2
3.210443706E0,6.566796452E-3,-3.848448023E-2,-1.206457894E-2
3.212568810E0,-3.207040019E-3,-2.260199748E-2,-1.328630932E-2
3.214693914E0,-1.053741761E-2,1.038470119E-2,-1.450803876E-2
3.216819070E0,-9.315688163E-3,6.719512399E-3,-9.621120058E-3
3.218944174E0,-5.650499370E-3,-1.771507785E-2,-1.328630932E-2
3.221069279E0,-1.298087649E-2,9.162971750E-3,-1.206457894E-2
3.223194383E0,-1.908952370E-2,2.504545636E-2,-1.084284950E-2
3.225319487E0,-1.053741761E-2,7.941242307E-3,-1.084284950E-2
3.227444591E0,1.679878100E-3,-1.893680729E-2,-1.817322709E-2
3.229569747E0,4.123337101E-3,-1.282816008E-2,-2.183841541E-2
3.231694852E0,4.123337101E-3,-6.719512399E-3,-1.695149764E-2
3.233819956E0,2.901607659E-3,-9.162971750E-3,-1.328630932E-2
3.235945060E0,-1.985310577E-3,-3.054323839E-3,-1.572976820E-2
3.238070164E0,-1.053741761E-2,-4.276053514E-3,-9.621120058E-3
3.240195268E0,-1.175914705E-2,-3.054323839E-3,-1.695149764E-2
3.242320372E0,-1.420260593E-2,4.276053514E-3,-1.206457894E-2
3.244445529E0,-1.298087649E-2,1.038470119E-2,-1.084284950E-2
3.246570633E0,-9.315688163E-3,-5.497782957E-3,-1.328630932E-2
3.248695737E0,-1.985310577E-3,-1.527161989E-2,-1.817322709E-2
3.250820841E0,-3.207040019E-3,4.276053514E-3,-1.695149764E-2
3.252945945E0,-1.053741761E-2,1.771507785E-2,-1.084284950E-2
3.255071049E0,-9.315688163E-3,1.160643063E-2,-1.206457894E-2
3.257196154E0,-3.207040019E-3,1.832594397E-3,-1.206457894E-2
3.259321310E0,-4.428769462E-3,3.054323839E-3,-8.399390616E-3
3.261446414E0,-5.650499370E-3,1.038470119E-2,-1.328630932E-2
3.263571518E0,-1.985310577E-3,-6.108647794E-4,-9.621120058E-3
3.265696622E0,4.123337101E-3,-1.404988952E-2,-1.450803876E-2
3.267821727E0,6.566796452E-3,-2.138026804E-2,-1.572976820E-2
3.269946831E0,2.901607659E-3,-1.404988952E-2,-1.695149764E-2
3.272071987E0,1.679878100E-3,-3.054323839E-3,-1.084284950E-2
3.274197091E0,-7.635809598E-4,-1.404988952E-2,-9.621120058E-3
3.276322195E0,-8.093958721E-3,-4.276053514E-3,-1.206457894E-2
3.278447299E0,-1.908952370E-2,2.015853859E-2,-1.084284950E-2
3.280572404E0,-1.542433538E-2,1.038470119E-2,-1.084284950E-2
3.282697508E0,-4.428769462E-3,-1.282816008E-2,-8.399390616E-3
3.284822612E0,5.345067009E-3,-2.382372692E-2,-1.206457894E-2
3.286947768E0,4.123337101E-3,-7.941242307E-3,-1.084284950E-2
3.289072872E0,-7.635809598E-4,-6.719512399E-3,-1.450803876E-2
3.291197977E0,-3.207040019E-3,6.108647794E-4,-1.450803876E-2
3.293323081E0,-3.207040019E-3,4.276053514E-3,-1.084284950E-2
3.295448185E0,-1.053741761E-2,-3.054323839E-3,-9.621120058E-3
3.297573289E0,-1.542433538E-2,5.497782957E-3,-1.450803876E-2
3.299698393E0,-1.298087649E-2,9.162971750E-3,-8.399390616E-3
3.301823549E0,-8.093958721E-3,6.108647794E-4,-9.621120058E-3
3.303948654E0,-4.428769462E-3,-1.404988952E-2,-1.695149764E-2
3.306073758E0,-1.985310577E-3,1.832594397E-3,-1.817322709E-2
3.308198862E0,-3.207040019E-3,3.054323839E-3,-1.084284950E-2
3.310323966E0,-8.093958721E-3,-1.282816008E-2,-1.450803876E-2
3.312449122E0,-1.175914705E-2,6.108647794E-4,-1.572976820E-2
3.314574227E0,-2.153298259E-2,6.719512399E-3,-1.206457894E-2
3.316699331E0,-2.519817278E-2,1.771507785E-2,-1.572976820E-2
3.318824435E0,-2.641990222E-2,2.015853859E-2,-1.328630932E-2
3.320949539E0,-1.298087649E-2,3.054323839E-3,-9.621120058E-3
3.323074643E0,-8.093958721E-3,-7.941242307E-3,-1.206457894E-2
3.325199747E0,-1.053741761E-2,-7.941242307E-3,-1.695149764E-2
3.327324904E0,-1.420260593E-2,-1.832594397E-3,-1.817322709E-2
3.329450008E0,-1.542433538E-2,1.038470119E-2,-1.084284950E-2
3.331575112E0,-2.031125315E-2,1.649334840E-2,-1.206457894E-2
3.333700216E0,-1.664606482E-2,-4.276053514E-3,-9.621120058E-3
3.335825320E0,-1.420260593E-2,-9.162971750E-3,-7.177661173E-3
3.337950424E0,-2.031125315E-2,-6.108647794E-4,-1.206457894E-2
3.340075529E0,-2.641990222E-2,7.941242307E-3,-1.084284950E-2
3.342200685E0,-1.908952370E-2,6.108647794E-4,-1.695149764E-2
3.344325789E0,-8.093958721E-3,-1.893680729E-2,-1.572976820E-2
3.346450893E0,-1.175914705E-2,-2.138026804E-2,-1.206457894E-2
3.348575997E0,-1.908952370E-2,-4.276053514E-3,-1.695149764E-2
3.350701102E0,-2.764163166E-2,-6.108647794E-4,-1.328630932E-2
3.352826206E0,-3.252854943E-2,2.382372692E-2,-1.206457894E-2
3.354951362E0,-3.863719851E-2,2.138026804E-2,-1.450803876E-2
3.357076466E0,-3.252854943E-2,1.038470119E-2,-1.450803876E-2
3.359201570E0,-1.664606482E-2,1.832594397E-3,-8.399390616E-3
3.361326674E0,-1.053741761E-2,-2.626718581E-2,-1.084284950E-2
3.363451779E0,-1.542433538E-2,-2.871064469E-2,-2.306014486E-2
3.365576883E0,-2.886336111E-2,1.038470119E-2,-1.084284950E-2
3.367701987E0,-3.008509055E-2,1.649334840E-2,-1.328630932E-2
3.369827143E0,-2.764163166E-2,-6.108647794E-4,-1.328630932E-2
3.371952247E0,-2.519817278E-2,-6.108647794E-4,-1.206457894E-2
3.374077352E0,-3.130681813E-2,1.282816008E-2,-9.621120058E-3
3.376202456E0,-3.252854943E-2,9.162971750E-3,-1.695149764E-2
3.378327560E0,-2.641990222E-2,1.649334840E-2,-1.450803876E-2
3.380452664E0,-2.153298259E-2,6.108647794E-4,-1.572976820E-2
3.382577768E0,-9.315688163E-3,-7.941242307E-3,-1.817322709E-2
3.384702924E0,-6.872228812E-3,-1.832594397E-3,-1.450803876E-2
3.386828029E0,-1.664606482E-2,5.497782957E-3,-1.206457894E-2
3.388953133E0,-2.519817278E-2,2.382372692E-2,-1.572976820E-2
3.391078237E0,-3.252854943E-2,3.115410358E-2,-1.084284950E-2
3.393203341E0,-3.130681813E-2,1.649334840E-2,-1.450803876E-2
3.395328497E0,-2.153298259E-2,7.941242307E-3,-1.328630932E-2
3.397453602E0,-2.031125315E-2,1.282816008E-2,-1.206457894E-2
3.399578706E0,-2.153298259E-2,5.497782957E-3,-1.328630932E-2
3.401703810E0,-1.542433538E-2,-5.497782957E-3,-1.817322709E-2
3.403828914E0,-2.031125315E-2,-5.497782957E-3,-1.695149764E-2
3.405954018E0,-2.764163166E-2,5.497782957E-3,-1.206457894E-2
3.408079122E0,-3.008509055E-2,1.404988952E-2,-1.206457894E-2
3.410204279E0,-2.397644334E-2,-1.832594397E-3,-8.399390616E-3
3.412329383E0,-2.153298259E-2,-2.015853859E-2,-1.328630932E-2
3.414454487E0,-2.519817278E-2,6.108647794E-4,-1.450803876E-2
3.416579591E0,-2.886336111E-2,1.282816008E-2,-1.206457894E-2
3.418704695E0,-2.153298259E-2,-6.719512399E-3,-1.084284950E-2
3.420829852E0,-1.664606482E-2,-1.038470119E-2,-1.817322709E-2
3.422954956E0,-2.519817278E-2,4.276053514E-3,-1.450803876E-2
3.425080060E0,-2.886336111E-2,1.771507785E-2,-1.328630932E-2
3.427205164E0,-3.252854943E-2,1.160643063E-2,-1.572976820E-2
3.429330268E0,-3.863719851E-2,1.893680729E-2,-1.695149764E-2
3.431455372E0,-3.863719851E-2,2.382372692E-2,-1.084284950E-2
3.433580477E0,-3.008509055E-2,1.038470119E-2,-1.206457894E-2
3.435705581E0,-1.908952370E-2,-1.038470119E-2,-1.328630932E-2
3.437830737E0,-1.053741761E-2,-2.260199748E-2,-1.328630932E-2
3.439955841E0,-8.093958721E-3,-2.260199748E-2,-1.328630932E-2
3.442080945E0,-1.908952370E-2,-1.771507785E-2,-1.572976820E-2
3.444206049E0,-2.764163166E-2,5.497782957E-3,-1.817322709E-2
3.446331154E0,-2.764163166E-2,2.138026804E-2,-1.084284950E-2
3.448456258E0,-2.031125315E-2,-1.832594397E-3,-1.206457894E-2
3.450581414E0,-1.786779426E-2,-9.162971750E-3,-1.328630932E-2
3.452706518E0,-2.519817278E-2,1.404988952E-2,-1.572976820E-2
3.454831622E0,-2.764163166E-2,2.748891525E-2,-1.450803876E-2
3.456956727E0,-1.908952370E-2,1.160643063E-2,-1.450803876E-2
3.459081831E0,-8.093958721E-3,6.108647794E-4,-1.695149764E-2
3.461206935E0,-1.053741761E-2,-4.276053514E-3,-1.817322709E-2
3.463332091E0,-1.786779426E-2,4.276053514E-3,-1.695149764E-2
3.465457195E0,-2.641990222E-2,1.649334840E-2,-1.450803876E-2
3.467582299E0,-3.130681813E-2,1.649334840E-2,-1.572976820E-2
3.469707404E0,-2.641990222E-2,-6.719512399E-3,-1.328630932E-2
3.471832508E0,-2.153298259E-2,3.054323839E-3,-1.084284950E-2
3.473957612E0,-2.275471389E-2,6.719512399E-3,-9.621120058E-3
3.476082716E0,-1.908952370E-2,-9.162971750E-3,-1.572976820E-2
3.478207820E0,-1.298087649E-2,-2.260199748E-2,-1.695149764E-2
3.480332977E0,-1.664606482E-2,-3.054323839E-3,-1.206457894E-2
3.482458081E0,-3.130681813E-2,1.160643063E-2,-1.450803876E-2
3.484583185E0,-3.252854943E-2,6.719512399E-3,-1.328630932E-2
3.486708289E0,-2.397644334E-2,1.038470119E-2,-1.084284950E-2
3.488833393E0,-2.519817278E-2,4.276053514E-3,-1.206457894E-2
3.490958497E0,-2.641990222E-2,-6.719512399E-3,-1.817322709E-2
3.493083654E0,-2.519817278E-2,1.649334840E-2,-1.450803876E-2
3.495208758E0,-2.031125315E-2,1.649334840E-2,-8.399390616E-3
3.497333862E0,-1.053741761E-2,-1.404988952E-2,-1.817322709E-2
3.499458966E0,-1.053741761E-2,-2.382372692E-2,-1.939495653E-2
3.501584070E0,-2.275471389E-2,7.941242307E-3,-1.572976820E-2
3.503709174E0,-3.008509055E-2,1.038470119E-2,-1.572976820E-2
3.505834331E0,-2.519817278E-2,-7.941242307E-3,-1.817322709E-2
3.507959435E0,-2.275471389E-2,-6.108647794E-4,-1.450803876E-2
3.510084539E0,-2.031125315E-2,-4.276053514E-3,-8.399390616E-3
3.512209643E0,-1.664606482E-2,-2.382372692E-2,-1.695149764E-2
3.514334747E0,-2.275471389E-2,-6.719512399E-3,-1.450803876E-2
3.516459852E0,-2.519817278E-2,3.054323839E-3,-1.328630932E-2
3.518584956E0,-2.031125315E-2,-7.941242307E-3,-1.450803876E-2
3.520710060E0,-2.031125315E-2,-1.771507785E-2,-1.572976820E-2
3.522835216E0,-2.764163166E-2,4.276053514E-3,-9.621120058E-3
3.524960320E0,-3.619373962E-2,2.382372692E-2,-1.084284950E-2
3.527085424E0,-3.863719851E-2,1.160643063E-2,-1.084284950E-2
3.529210529E0,-3.130681813E-2,-1.832594397E-3,-1.939495653E-2
3.531335633E0,-1.908952370E-2,1.160643063E-2,-1.328630932E-2
3.533460789E0,-1.908952370E-2,1.832594397E-3,-1.084284950E-2
3.535585893E0,-1.542433538E-2,-1.527161989E-2,-1.939495653E-2
3.537710997E0,-8.093958721E-3,-1.160643063E-2,-1.328630932E-2
3.539836102E0,-1.542433538E-2,-6.719512399E-3,-1.206457894E-2
3.541961206E0,-3.252854943E-2,-4.276053514E-3,-1.695149764E-2
3.544086310E0,-3.741546720E-2,2.015853859E-2,-9.621120058E-3
3.546211466E0,-3.497200832E-2,5.497782957E-3,-9.621120058E-3
3.548336570E0,-3.008509055E-2,-1.527161989E-2,-1.084284950E-2
3.550461674E0,-2.641990222E-2,-3.054323839E-3,-1.450803876E-2
3.552586779E0,-2.886336111E-2,1.282816008E-2,-8.399390616E-3
3.554711883E0,-2.397644334E-2,-1.038470119E-2,-1.328630932E-2
3.556836987E0,-1.420260593E-2,-5.497782957E-3,-1.328630932E-2
3.558962091E0,-1.786779426E-2,4.276053514E-3,-1.450803876E-2
3.561087195E0,-1.908952370E-2,9.162971750E-3,-7.177661173E-3
3.563212352E0,-2.153298259E-2,6.108647794E-4,-1.328630932E-2
3.565337456E0,-2.519817278E-2,-3.054323839E-3,-1.328630932E-2
3.567462560E0,-3.008509055E-2,1.404988952E-2,-1.084284950E-2
3.569587664E0,-2.886336111E-2,1.404988952E-2,-1.084284950E-2
3.571712768E0,-2.031125315E-2,-7.941242307E-3,-1.328630932E-2
3.573837924E0,-1.542433538E-2,-1.038470119E-2,-1.084284950E-2
3.575963029E0,-2.031125315E-2,-1.282816008E-2,-1.572976820E-2
3.578088133E0,-2.397644334E-2,-6.108647794E-4,-1.939495653E-2
3.580213237E0,-2.641990222E-2,6.108647794E-4,-1.450803876E-2
3.582338341E0,-2.519817278E-2,-3.054323839E-3,-1.450803876E-2
3.584463445E0,-2.764163166E-2,1.832594397E-3,-1.328630932E-2
3.586588549E0,-3.497200832E-2,4.276053514E-3,-1.206457894E-2
3.588713706E0,-3.008509055E-2,4.276053514E-3,-1.328630932E-2
3.590838810E0,-2.275471389E-2,5.497782957E-3,-1.328630932E-2
3.592963914E0,-1.908952370E-2,-1.160643063E-2,-1.450803876E-2
3.595089018E0,-1.786779426E-2,-1.527161989E-2,-1.206457894E-2
3.597214122E0,-2.397644334E-2,1.832594397E-3,-1.206457894E-2
3.599339227E0,-3.497200832E-2,9.162971750E-3,-9.621120058E-3
3.601464383E0,-3.375028074E-2,1.160643063E-2,-1.206457894E-2
3.603589487E0,-2.641990222E-2,6.108647794E-4,-1.206457894E-2
3.605714591E0,-2.764163166E-2,-4.276053514E-3,-1.206457894E-2
3.607839695E0,-2.886336111E-2,1.038470119E-2,-1.084284950E-2
3.609964799E0,-2.275471389E-2,1.832594397E-3,-1.084284950E-2
3.612089904E0,-1.420260593E-2,-1.649334840E-2,-1.328630932E-2
3.614215008E0,-9.315688163E-3,-2.015853859E-2,-1.695149764E-2
3.616340164E0,-1.175914705E-2,-9.162971750E-3,-1.572976820E-2
3.618465268E0,-2.031125315E-2,-3.054323839E-3,-1.695149764E-2
3.620590372E0,-2.764163166E-2,1.038470119E-2,-1.206457894E-2
3.622715477E0,-2.886336111E-2,1.160643063E-2,-8.399390616E-3
3.624840581E0,-2.886336111E-2,5.497782957E-3,-1.084284950E-2
3.626965685E0,-2.641990222E-2,9.162971750E-3,-1.328630932E-2
3.629090841E0,-2.153298259E-2,1.038470119E-2,-8.399390616E-3
3.631215945E0,-1.908952370E-2,-6.719512399E-3,-1.206457894E-2
3.633341049E0,-1.053741761E-2,-1.282816008E-2,-1.328630932E-2
3.635466154E0,-5.650499370E-3,-2.504545636E-2,-1.084284950E-2
3.637591258E0,-1.175914705E-2,-1.527161989E-2,-1.206457894E-2
3.639716362E0,-2.519817278E-2,1.038470119E-2,-1.328630932E-2
3.641841518E0,-3.130681813E-2,2.871064469E-2,-9.621120058E-3
3.643966622E0,-2.275471389E-2,6.719512399E-3,-9.621120058E-3
3.646091727E0,-1.175914705E-2,-2.382372692E-2,-1.084284950E-2
3.648216831E0,-9.315688163E-3,-6.108647794E-4,-1.084284950E-2
3.650341935E0,-2.153298259E-2,1.832594397E-3,-1.206457894E-2
3.652467039E0,-2.031125315E-2,-6.108647794E-4,-1.450803876E-2
3.654592195E0,-1.420260593E-2,-7.941242307E-3,-1.817322709E-2
3.656717299E0,-1.420260593E-2,-7.941242307E-3,-1.572976820E-2
3.658842404E0,-2.275471389E-2,6.108647794E-4,-1.206457894E-2
3.660967508E0,-2.886336111E-2,9.162971750E-3,-1.206457894E-2
3.663092612E0,-3.252854943E-2,1.160643063E-2,-1.328630932E-2
3.665217716E0,-2.641990222E-2,1.404988952E-2,-1.206457894E-2
3.667342820E0,-1.908952370E-2,-9.162971750E-3,-1.572976820E-2
3.669467977E0,-1.053741761E-2,-1.527161989E-2,-1.328630932E-2
3.671593081E0,-1.298087649E-2,-9.162971750E-3,-1.084284950E-2
3.673718185E0,-2.031125315E-2,-9.162971750E-3,-1.206457894E-2
3.675843289E0,-1.908952370E-2,3.054323839E-3,-1.328630932E-2
3.677968393E0,-2.031125315E-2,-5.497782957E-3,-9.621120058E-3
3.680093549E0,-2.641990222E-2,4.276053514E-3,-1.450803876E-2
3.682218654E0,-2.764163166E-2,2.993237413E-2,-7.177661173E-3
3.684343758E0,-2.519817278E-2,2.138026804E-2,-7.177661173E-3
3.686468862E0,-1.420260593E-2,4.276053514E-3,-1.450803876E-2
3.688593966E0,-8.093958721E-3,-5.497782957E-3,-1.206457894E-2
3.690719070E0,-6.872228812E-3,-1.832594397E-3,-1.450803876E-2
3.692844174E0,-1.053741761E-2,4.276053514E-3,-1.572976820E-2
3.694969279E0,-1.664606482E-2,3.054323839E-3,-1.084284950E-2
3.697094435E0,-1.420260593E-2,5.497782957E-3,-1.328630932E-2
3.699219539E0,-1.542433538E-2,-1.832594397E-3,-1.084284950E-2
3.701344643E0,-2.031125315E-2,5.497782957E-3,-8.399390616E-3
3.703469747E0,-1.786779426E-2,-6.108647794E-4,-1.206457894E-2
3.705594852E0,-1.420260593E-2,-6.108647794E-4,-1.206457894E-2
3.707720008E0,-9.315688163E-3,1.160643063E-2,-1.084284950E-2
3.709845112E0,-8.093958721E-3,-5.497782957E-3,-7.177661173E-3
3.711970216E0,4.581485991E-4,-2.015853859E-2,-8.399390616E-3
3.714095320E0,-7.635809598E-4,-1.771507785E-2,-9.621120058E-3
3.716220424E0,-1.908952370E-2,6.719512399E-3,-9.621120058E-3
3.718345529E0,-2.764163166E-2,3.604102135E-2,-9.621120058E-3
3.720470633E0,-2.153298259E-2,2.382372692E-2,-2.290742937E-3
3.722595737E0,-4.428769462E-3,1.832594397E-3,-9.621120058E-3
3.724720893E0,4.581485991E-4,-6.719512399E-3,-9.621120058E-3
3.726845997E0,-7.635809598E-4,6.108647794E-4,-7.177661173E-3
3.728971102E0,1.679878100E-3,4.276053514E-3,-1.206457894E-2
3.731096206E0,2.901607659E-3,-7.941242307E-3,-1.206457894E-2
3.733221310E0,6.566796452E-3,-9.162971750E-3,-1.206457894E-2
3.735346466E0,6.566796452E-3,-3.054323839E-3,-8.399390616E-3
3.737471570E0,-1.985310577E-3,-3.054323839E-3,-9.621120058E-3
3.739596674E0,-8.093958721E-3,3.054323839E-3,-7.177661173E-3
3.741721779E0,-1.664606482E-2,1.160643063E-2,-8.399390616E-3
3.743846883E0,-1.664606482E-2,2.504545636E-2,-8.399390616E-3
3.745971987E0,-1.985310577E-3,9.162971750E-3,-5.955931731E-3
3.748097091E0,5.345067009E-3,-1.893680729E-2,-9.621120058E-3
3.750222247E0,5.345067009E-3,-5.497782957E-3,-1.084284950E-2
3.752347299E0,1.679878100E-3,9.162971750E-3,-9.621120058E-3
3.754472456E0,6.566796452E-3,-1.404988952E-2,-9.621120058E-3
3.756597560E0,4.581485991E-4,-1.832594397E-3,-9.621120058E-3
3.758722664E0,-6.872228812E-3,2.871064469E-2,-4.734201822E-3
3.760847768E0,-4.428769462E-3,1.771507785E-2,-7.177661173E-3
3.762972924E0,1.679878100E-3,6.719512399E-3,-7.177661173E-3
3.765098029E0,4.123337101E-3,1.038470119E-2,-1.206457894E-2
3.767223133E0,1.267544460E-2,4.276053514E-3,-1.206457894E-2
3.769348237E0,1.878409274E-2,-2.626718581E-2,-9.621120058E-3
3.771473341E0,2.122755162E-2,-2.260199748E-2,-1.206457894E-2
3.773598445E0,1.145371422E-2,4.276053514E-3,-9.621120058E-3
3.775723602E0,4.581485991E-4,1.404988952E-2,-8.399390616E-3
3.777848706E0,-5.650499370E-3,1.160643063E-2,-1.572976820E-2
3.779973810E0,2.901607659E-3,2.626718581E-2,-7.177661173E-3
3.782098914E0,6.566796452E-3,9.162971750E-3,-9.621120058E-3
3.784224018E0,1.145371422E-2,-7.941242307E-3,-1.084284950E-2
3.786349174E0,1.389717404E-2,5.497782957E-3,-5.955931731E-3
3.788474279E0,1.023198478E-2,1.649334840E-2,-7.177661173E-3
3.790599383E0,1.756236330E-2,1.832594397E-3,-1.450803876E-2
3.792724487E0,3.344484791E-2,-2.015853859E-2,-9.621120058E-3
3.794849591E0,3.100138716E-2,-1.404988952E-2,-8.399390616E-3
3.796974695E0,1.389717404E-2,1.160643063E-2,-5.955931731E-3
3.799099799E0,7.788525894E-3,1.649334840E-2,-5.955931731E-3
3.801224904E0,1.511890348E-2,1.527161989E-2,-5.955931731E-3
3.803350060E0,1.878409274E-2,1.771507785E-2,-4.734201822E-3
3.805475164E0,2.367101051E-2,-5.497782957E-3,-1.328630932E-2
3.807600268E0,3.466657549E-2,-1.832594397E-3,-7.177661173E-3
3.809725372E0,3.344484791E-2,-7.941242307E-3,-5.955931731E-3
3.811850477E0,2.611446939E-2,-1.160643063E-2,-1.084284950E-2
3.813975581E0,2.000582218E-2,-6.108647794E-4,-1.206457894E-2
3.816100737E0,1.267544460E-2,2.138026804E-2,-7.177661173E-3
3.818225841E0,1.511890348E-2,3.237583488E-2,-5.955931731E-3
3.820350945E0,2.367101051E-2,-3.054323839E-3,-5.955931731E-3
3.822476049E0,3.344484791E-2,-1.527161989E-2,-8.399390616E-3
3.824601154E0,2.611446939E-2,1.038470119E-2,-5.955931731E-3
3.826726258E0,2.733619884E-2,-6.108647794E-4,-8.399390616E-3
3.828851362E0,3.588830680E-2,-1.649334840E-2,-7.177661173E-3
3.830976518E0,3.711003438E-2,-2.015853859E-2,-9.621120058E-3
3.833101622E0,3.222311661E-2,1.832594397E-3,-3.512472380E-3
3.835226727E0,2.367101051E-2,-6.108647794E-4,-3.512472380E-3
3.837351831E0,2.122755162E-2,6.108647794E-4,-7.177661173E-3
3.839476935E0,2.000582218E-2,2.015853859E-2,-1.069013379E-3
3.841602039E0,2.611446939E-2,-6.108647794E-4,-5.955931731E-3
3.843727195E0,3.100138716E-2,-4.276053514E-3,-9.621120058E-3
3.845852299E0,3.588830680E-2,1.771507785E-2,-7.177661173E-3
3.847977404E0,4.321868345E-2,-4.276053514E-3,-4.734201822E-3
3.850102508E0,4.810560122E-2,-2.260199748E-2,-1.328630932E-2
3.852227612E0,4.199695215E-2,-9.162971750E-3,-1.450803876E-2
3.854352716E0,2.855792828E-2,3.237583488E-2,-5.955931731E-3
3.856477872E0,2.122755162E-2,2.260199748E-2,-1.084284950E-2
3.858602924E0,2.977965772E-2,1.282816008E-2,-4.734201822E-3
3.860728081E0,3.833176568E-2,-1.832594397E-3,-5.955931731E-3
3.862853185E0,3.588830680E-2,-6.108647794E-4,-3.512472380E-3
3.864978289E0,2.977965772E-2,9.162971750E-3,-1.328630932E-2
3.867103445E0,3.100138716E-2,7.941242307E-3,-4.734201822E-3
3.869228549E0,3.955349326E-2,-5.497782957E-3,-9.621120058E-3
3.871353654E0,4.932733253E-2,-2.382372692E-2,-3.512472380E-3
3.873478758E0,4.566214234E-2,-3.237583488E-2,-1.084284950E-2
3.875603862E0,2.855792828E-2,1.832594397E-3,-5.955931731E-3
3.877728966E0,1.634063199E-2,3.970621154E-2,-4.734201822E-3
3.879854122E0,1.756236330E-2,2.871064469E-2,-3.512472380E-3
3.881979174E0,3.344484791E-2,9.162971750E-3,-9.621120058E-3
3.884104331E0,4.077522457E-2,-6.719512399E-3,-5.955931731E-3
3.886229435E0,4.688387364E-2,-5.497782957E-3,-5.955931731E-3
3.888354539E0,4.566214234E-2,-6.719512399E-3,-9.621120058E-3
3.890479643E0,3.222311661E-2,3.054323839E-3,-1.328630932E-2
3.892604747E0,2.977965772E-2,1.527161989E-2,-9.621120058E-3
3.894729852E0,3.711003438E-2,-9.162971750E-3,-4.734201822E-3
3.896855008E0,3.955349326E-2,-3.115410358E-2,-8.399390616E-3
3.898980112E0,2.244928107E-2,-3.054323839E-3,-8.399390616E-3
3.901105164E0,1.267544460E-2,2.993237413E-2,-3.512472380E-3
3.903230320E0,2.367101051E-2,9.162971750E-3,-8.399390616E-3
3.905355424E0,4.321868345E-2,-3.481929377E-2,-1.206457894E-2
3.907480529E0,5.054906011E-2,-2.015853859E-2,-3.512472380E-3
3.909605685E0,3.955349326E-2,-3.054323839E-3,-3.512472380E-3
3.911730789E0,3.711003438E-2,-3.054323839E-3,-7.177661173E-3
3.913855893E0,3.833176568E-2,-3.054323839E-3,-2.290742937E-3
3.915980997E0,3.588830680E-2,-1.832594397E-3,-5.955931731E-3
3.918106102E0,2.611446939E-2,1.282816008E-2,-1.328630932E-2
3.920231258E0,2.367101051E-2,4.459312931E-2,1.527161949E-4
3.922356362E0,3.344484791E-2,9.162971750E-3,-3.512472380E-3
3.924481466E0,4.077522457E-2,-2.504545636E-2,-1.206457894E-2
3.926606570E0,4.444041103E-2,6.108647794E-4,-1.206457894E-2
3.928731674E0,3.344484791E-2,1.282816008E-2,-4.734201822E-3
3.930856779E0,3.955349326E-2,-1.527161989E-2,-1.206457894E-2
3.932981883E0,4.444041103E-2,-3.115410358E-2,-1.206457894E-2
3.935107039E0,3.100138716E-2,-5.497782957E-3,-5.955931731E-3
3.937232143E0,1.634063199E-2,2.138026804E-2,-8.399390616E-3
3.939357247E0,1.389717404E-2,2.871064469E-2,-5.955931731E-3
3.941482352E0,2.855792828E-2,6.108647794E-4,-7.177661173E-3
3.943607456E0,4.444041103E-2,-3.237583488E-2,-1.084284950E-2
3.945732560E0,4.321868345E-2,-1.771507785E-2,-5.955931731E-3
3.947857716E0,2.855792828E-2,1.649334840E-2,-1.069013379E-3
3.949982820E0,2.244928107E-2,-1.832594397E-3,-8.399390616E-3
3.952107924E0,3.222311661E-2,-1.649334840E-2,-1.328630932E-2
3.954233029E0,3.222311661E-2,-3.054323839E-3,-9.621120058E-3
3.956358133E0,2.367101051E-2,5.497782957E-3,-7.177661173E-3
3.958483237E0,1.878409274E-2,1.649334840E-2,-7.177661173E-3
3.960608393E0,1.634063199E-2,2.260199748E-2,-7.177661173E-3
3.962733497E0,2.611446939E-2,1.160643063E-2,-5.955931731E-3
3.964858602E0,3.955349326E-2,-1.038470119E-2,-9.621120058E-3
3.966983706E0,4.199695215E-2,-1.649334840E-2,-1.206457894E-2
3.969108810E0,3.588830680E-2,-6.719512399E-3,-8.399390616E-3
3.971233914E0,2.611446939E-2,-5.497782957E-3,-8.399390616E-3
3.973359018E0,2.244928107E-2,-1.893680729E-2,-1.450803876E-2
3.975484174E0,2.244928107E-2,-6.719512399E-3,-7.177661173E-3
3.977609279E0,2.000582218E-2,1.832594397E-3,-7.177661173E-3
3.979734383E0,2.000582218E-2,-7.941242307E-3,-1.206457894E-2
3.981859487E0,2.611446939E-2,1.832594397E-3,-8.399390616E-3
3.983984591E0,2.977965772E-2,9.162971750E-3,-3.512472380E-3
3.986109747E0,3.344484791E-2,-9.162971750E-3,-8.399390616E-3
3.988234852E0,3.711003438E-2,-9.162971750E-3,-9.621120058E-3
3.990359956E0,2.855792828E-2,6.108647794E-4,-8.399390616E-3
3.992485060E0,2.489273995E-2,-1.404988952E-2,-1.206457894E-2
3.994610164E0,2.611446939E-2,-1.404988952E-2,-8.399390616E-3
3.996735268E0,1.389717404E-2,1.038470119E-2,-5.955931731E-3
3.998860372E0,1.389717404E-2,1.893680729E-2,-5.955931731E-3
4.000985529E0,2.122755162E-2,-7.941242307E-3,-7.177661173E-3
4.003110633E0,2.855792828E-2,-1.527161989E-2,-1.328630932E-2
4.005235737E0,3.100138716E-2,-6.719512399E-3,-1.084284950E-2
4.007360841E0,3.588830680E-2,-2.015853859E-2,-1.450803876E-2
4.009485945E0,4.077522457E-2,-3.359756246E-2,-1.206457894E-2
4.011611049E0,3.344484791E-2,-1.893680729E-2,-7.177661173E-3
4.013736154E0,1.511890348E-2,-4.276053514E-3,-1.450803876E-2
4.015861310E0,6.566796452E-3,1.832594397E-3,-1.206457894E-2
4.017986414E0,5.345067009E-3,9.162971750E-3,-9.621120058E-3
4.020111518E0,7.788525894E-3,1.649334840E-2,-5.955931731E-3
4.022236622E0,9.010255337E-3,3.054323839E-3,-7.177661173E-3
4.024361727E0,2.000582218E-2,-1.527161989E-2,-1.206457894E-2
4.026486831E0,2.244928107E-2,-6.108647794E-4,-9.621120058E-3
4.028611987E0,1.756236330E-2,3.054323839E-3,-1.084284950E-2
4.030737091E0,2.367101051E-2,-2.015853859E-2,-1.206457894E-2
4.032862195E0,2.611446939E-2,-1.160643063E-2,-1.206457894E-2
4.034987352E0,1.511890348E-2,6.108647794E-4,-9.621120058E-3
4.037112404E0,1.267544460E-2,6.108647794E-4,-7.177661173E-3
4.039237508E0,1.389717404E-2,-3.054323839E-3,-7.177661173E-3
4.041362664E0,1.023198478E-2,6.719512399E-3,-7.177661173E-3
4.043487768E0,1.267544460E-2,-1.832594397E-3,-1.084284950E-2
4.045612872E0,1.756236330E-2,-1.160643063E-2,-9.621120058E-3
4.047737977E0,2.244928107E-2,-9.162971750E-3,-8.399390616E-3
4.049863081E0,2.367101051E-2,-2.504545636E-2,-1.084284950E-2
4.051988185E0,1.756236330E-2,-3.237583488E-2,-1.206457894E-2
4.054113341E0,5.345067009E-3,6.719512399E-3,-1.450803876E-2
4.056238445E0,-4.428769462E-3,2.504545636E-2,-1.084284950E-2
4.058363549E0,5.345067009E-3,6.719512399E-3,-8.399390616E-3
4.060488654E0,1.634063199E-2,-2.504545636E-2,-1.084284950E-2
4.062613758E0,1.389717404E-2,-1.282816008E-2,-9.621120058E-3
4.064738862E0,6.566796452E-3,-3.054323839E-3,-1.206457894E-2
4.066864018E0,6.566796452E-3,-6.108647794E-4,-1.084284950E-2
4.068989122E0,1.878409274E-2,-2.138026804E-2,-8.399390616E-3
4.071114227E0,2.244928107E-2,-3.481929377E-2,-8.399390616E-3
4.073239331E0,1.267544460E-2,-2.260199748E-2,-8.399390616E-3
4.075364435E0,-7.635809598E-4,-1.282816008E-2,-8.399390616E-3
4.077489539E0,-4.428769462E-3,3.054323839E-3,-5.955931731E-3
4.079614695E0,-4.428769462E-3,6.108647794E-4,-1.206457894E-2
4.081739799E0,1.679878100E-3,-1.038470119E-2,-5.955931731E-3
4.083864904E0,6.566796452E-3,-4.276053514E-3,-9.621120058E-3
4.085990008E0,1.023198478E-2,-1.404988952E-2,-8.399390616E-3
4.088115112E0,1.756236330E-2,-2.626718581E-2,-9.621120058E-3
4.090240216E0,1.145371422E-2,-1.649334840E-2,-1.328630932E-2
4.092365372E0,6.566796452E-3,-6.719512399E-3,-1.084284950E-2
4.094490477E0,1.145371422E-2,-6.719512399E-3,-8.399390616E-3
4.096615581E0,9.010255337E-3,-1.038470119E-2,-8.399390616E-3
4.098740685E0,2.901607659E-3,-3.054323839E-3,-7.177661173E-3
4.100865789E0,-7.635809598E-4,1.282816008E-2,-5.955931731E-3
4.102990893E0,4.581485991E-4,-3.054323839E-3,-9.621120058E-3
4.105116049E0,5.345067009E-3,-5.497782957E-3,-1.206457894E-2
4.107241154E0,9.010255337E-3,-1.038470119E-2,-8.399390616E-3
4.109366258E0,7.788525894E-3,-9.162971750E-3,-7.177661173E-3
4.111491362E0,1.023198478E-2,-2.748891525E-2,-5.955931731E-3
4.113616466E0,2.901607659E-3,-2.015853859E-2,-9.621120058E-3
4.115741570E0,-6.872228812E-3,6.108647794E-4,-1.084284950E-2
4.117866674E0,-1.298087649E-2,5.497782957E-3,-7.177661173E-3
4.119991831E0,-9.315688163E-3,7.941242307E-3,-7.177661173E-3
4.122116935E0,-4.428769462E-3,-1.832594397E-3,-7.177661173E-3
4.124242039E0,6.566796452E-3,-1.527161989E-2,-9.621120058E-3
4.126367143E0,6.566796452E-3,-1.893680729E-2,-1.084284950E-2
4.128492247E0,6.566796452E-3,-1.771507785E-2,-1.084284950E-2
4.130617404E0,-7.635809598E-4,-9.162971750E-3,-8.399390616E-3
4.132742508E0,-6.872228812E-3,-1.649334840E-2,-1.084284950E-2
4.134867612E0,-3.207040019E-3,-1.771507785E-2,-9.621120058E-3
4.136992716E0,-9.315688163E-3,-9.162971750E-3,-9.621120058E-3
4.139117820E0,-1.420260593E-2,-9.162971750E-3,-8.399390616E-3
4.141242924E0,-1.298087649E-2,-1.771507785E-2,-1.328630932E-2
4.143368029E0,-1.175914705E-2,-1.832594397E-3,-9.621120058E-3
4.145493133E0,-8.093958721E-3,-3.054323839E-3,-8.399390616E-3
4.147618289E0,-4.428769462E-3,-2.015853859E-2,-7.177661173E-3
4.149743393E0,-1.985310577E-3,-2.748891525E-2,-8.399390616E-3
4.151868497E0,-1.053741761E-2,-7.941242307E-3,-8.399390616E-3
4.153993602E0,-1.664606482E-2,-1.832594397E-3,-4.734201822E-3
4.156118706E0,-1.175914705E-2,-6.719512399E-3,-7.177661173E-3
4.158243862E0,-1.542433538E-2,-4.276053514E-3,-5.955931731E-3
4.160368966E0,-2.031125315E-2,9.162971750E-3,-7.177661173E-3
4.162494070E0,-1.420260593E-2,7.941242307E-3,-4.734201822E-3
4.164619174E0,-1.985310577E-3,-1.404988952E-2,-4.734201822E-3
4.166744279E0,4.123337101E-3,-2.748891525E-2,-1.328630932E-2
4.168869383E0,-4.428769462E-3,-6.719512399E-3,-5.955931731E-3
4.170994539E0,-8.093958721E-3,-4.276053514E-3,-8.399390616E-3
4.173119643E0,1.679878100E-3,-3.359756246E-2,-4.734201822E-3
4.175244747E0,1.679878100E-3,-3.481929377E-2,-9.621120058E-3
4.177369852E0,-1.786779426E-2,-3.054323839E-3,-7.177661173E-3
4.179494956E0,-3.008509055E-2,1.649334840E-2,-8.399390616E-3
4.181620060E0,-1.908952370E-2,1.404988952E-2,-2.290742937E-3
4.183745164E0,-8.093958721E-3,-1.527161989E-2,-4.734201822E-3
4.185870320E0,-7.635809598E-4,-1.404988952E-2,-7.177661173E-3
4.187995424E0,-6.872228812E-3,-4.276053514E-3,-3.512472380E-3
4.190120529E0,-1.175914705E-2,3.054323839E-3,-7.177661173E-3
4.192245633E0,-9.315688163E-3,-2.260199748E-2,-1.206457894E-2
4.194370737E0,-5.650499370E-3,-3.237583488E-2,-2.290742937E-3
4.196495841E0,-1.298087649E-2,-2.138026804E-2,-8.399390616E-3
4.198620997E0,-3.375028074E-2,3.054323839E-3,1.527161949E-4
4.200746102E0,-3.375028074E-2,1.038470119E-2,-8.399390616E-3
4.202871206E0,-2.153298259E-2,-1.282816008E-2,-4.734201822E-3
4.204996310E0,-9.315688163E-3,-2.382372692E-2,-1.206457894E-2
4.207121414E0,-8.093958721E-3,-1.893680729E-2,-5.955931731E-3
