"Time (s)","Acceleration x (m/s^2)","Acceleration y (m/s^2)","Acceleration z (m/s^2)"
1.499152300E-2,-2.344966233E-1,2.775674164E-1,9.600004196E0
1.711673100E-2,-3.349951804E-1,2.632105052E-1,9.585647583E0
1.924194000E-2,-3.397808075E-1,3.780659735E-1,9.958928108E0
2.136714800E-2,-4.546363056E-1,2.057827413E-1,1.037527943E1
2.349235600E-2,-5.934200287E-1,-4.785645381E-2,1.040399265E1
2.561756500E-2,-2.249253243E-1,-1.339980662E-1,1.018863869E1
2.774277300E-2,3.349951655E-2,-3.541377485E-1,9.911071777E0
2.986798100E-2,-1.722832322E-1,-7.657032460E-2,9.442078590E0
3.199319000E-2,-1.914258152E-1,5.934200287E-1,9.111868858E0
3.411834600E-2,-3.445664644E-1,7.513462901E-1,9.308079720E0
3.624355400E-2,-3.780659735E-1,5.742774606E-1,9.623932838E0
3.836876300E-2,-1.722832322E-1,6.795616150E-1,9.686145782E0
4.049397100E-2,-1.435693540E-2,6.412764788E-1,9.997213364E0
4.261917900E-2,8.135596663E-2,5.072783828E-1,1.022692394E1
4.474438800E-2,-8.614161611E-2,3.589234054E-1,1.016949654E1
4.686959600E-2,-5.599204898E-1,3.397808075E-1,1.016949654E1
4.899480400E-2,-6.317051649E-1,3.493520916E-1,1.026520920E1
5.112001300E-2,-3.732803464E-1,5.742774159E-2,1.025085258E1
5.324522100E-2,-4.785645287E-3,-1.579262912E-1,9.930213928E0
5.537042900E-2,3.110669553E-1,-1.531406492E-1,9.705288887E0
5.749563800E-2,2.488535494E-1,-1.244267747E-1,9.628718376E0
5.962084600E-2,1.914258152E-1,4.259224236E-1,9.442078590E0
6.174605400E-2,4.307080805E-2,9.236295223E-1,9.432506561E0
6.387126300E-2,-1.483550072E-1,8.231309652E-1,9.719645500E0
6.599647100E-2,1.914258115E-2,6.508477330E-1,9.824930191E0
6.812167900E-2,4.211367965E-1,6.891329288E-1,9.805787086E0
7.024688800E-2,4.642075896E-1,6.317051649E-1,9.896714211E0
7.237209600E-2,1.962114573E-1,5.694918036E-1,1.004506969E1
7.449730400E-2,-2.632105052E-1,4.689932466E-1,1.013599682E1
7.662251300E-2,-4.498506486E-1,4.354937077E-1,1.016471100E1
7.874772100E-2,-2.536391914E-1,2.823530734E-1,1.023170948E1
8.087292900E-2,-8.614161611E-2,-1.914258115E-2,1.031785107E1
8.299813800E-2,6.221338734E-2,5.742774159E-2,1.011685371E1
8.512334600E-2,1.339980662E-1,1.962114573E-1,1.000678444E1
8.724850200E-2,-1.914258152E-1,9.092725813E-2,1.007856941E1
8.937371100E-2,-3.014956415E-1,3.780659735E-1,9.915857315E0
9.149891900E-2,-1.722832322E-1,7.417750359E-1,9.925428391E0
9.362412700E-2,7.178468257E-2,5.886343718E-1,1.012642574E1
9.574933600E-2,2.392822653E-1,4.833501875E-1,1.008814049E1
9.787454400E-2,2.488535494E-1,6.939185858E-1,1.003549862E1
9.999975200E-2,-4.785645287E-3,7.752745152E-1,1.021256733E1
1.021249610E-1,-3.062812984E-1,6.891329288E-1,1.031306553E1
1.042501690E-1,-6.029912829E-1,3.780659735E-1,1.032263660E1
1.063753770E-1,-5.790630579E-1,2.009970993E-1,1.031785107E1
1.085005860E-1,-2.632105052E-1,2.105683982E-1,1.021735287E1
1.106257940E-1,-2.392822653E-1,1.196411327E-1,1.010728264E1
1.127510020E-1,-2.679961324E-1,-2.871387079E-2,9.963713646E0
1.148762110E-1,-2.488535494E-1,-6.699903309E-2,9.906285286E0
1.170014190E-1,-1.292124242E-1,-5.742774159E-2,9.949356079E0
1.191266270E-1,1.339980662E-1,1.722832322E-1,9.868000984E0
1.212518360E-1,2.536391914E-1,4.881358147E-1,9.767501831E0
1.233770440E-1,1.674975902E-1,6.173482537E-1,9.815358162E0
1.255022520E-1,8.135596663E-2,6.891329288E-1,9.801001549E0
1.276274610E-1,-1.627119333E-1,8.566305041E-1,9.686145782E0
1.297526690E-1,-4.019941986E-1,8.949156404E-1,9.604789734E0
1.318778770E-1,-3.589234054E-1,6.891329288E-1,9.652647018E0
1.340030860E-1,-2.775674164E-1,3.589234054E-1,9.600004196E0
1.361282940E-1,-2.823530734E-1,4.259224236E-1,9.485149384E0
1.382535020E-1,-2.344966233E-1,6.269195080E-1,9.643074989E0
1.403787110E-1,-2.584248483E-1,4.259224236E-1,1.008814049E1
1.425039190E-1,-2.344966233E-1,2.679961324E-1,1.023170948E1
1.446290750E-1,-1.818545163E-1,7.657032460E-2,1.036092186E1
1.467542830E-1,-1.435693540E-2,-2.009970993E-1,1.042313576E1
1.488794920E-1,1.818545163E-1,1.004985496E-1,1.021256733E1
1.510047000E-1,1.052841991E-1,4.785645306E-1,1.010249710E1
1.531299080E-1,-2.249253243E-1,4.498506486E-1,1.019342422E1
1.552551170E-1,-2.632105052E-1,5.790630579E-1,1.013121128E1
1.573803250E-1,-9.092725813E-2,7.082754970E-1,1.004506969E1
1.595055330E-1,-1.483550072E-1,5.599204898E-1,1.001635551E1
1.616307420E-1,-1.244267747E-1,4.737788737E-1,1.003071213E1
1.637559500E-1,-3.254238665E-1,4.307080805E-1,9.934999466E0
1.658811580E-1,-5.120640397E-1,4.881358147E-1,9.963713646E0
1.680062110E-1,-5.312066078E-1,3.972085714E-1,1.017906761E1
1.701315750E-1,-3.732803464E-1,9.571290761E-2,1.028913784E1
1.722567830E-1,-1.914258115E-2,-8.614161611E-2,1.015992451E1
1.743819920E-1,4.402793646E-1,-1.483550072E-1,1.000199890E1
1.765072000E-1,3.541377485E-1,-4.785645287E-3,9.954142570E0
1.786324080E-1,2.488535494E-1,5.934200287E-1,9.719645500E0
1.807576170E-1,7.178468257E-2,9.954141974E-1,9.633503914E0
1.828828250E-1,-1.292124242E-1,7.992027402E-1,9.767501831E0
1.850080330E-1,-4.785645381E-2,5.742774606E-1,9.781859398E0
1.871332420E-1,1.914258152E-1,6.029912829E-1,9.714859962E0
1.892584500E-1,2.536391914E-1,5.120640397E-1,9.705288887E0
1.913836580E-1,3.828516230E-2,4.450650215E-1,9.891928673E0
1.935088670E-1,-3.445664644E-1,4.402793646E-1,9.963713646E0
1.956340230E-1,-5.407779217E-1,5.551348329E-1,1.001635551E1
1.977592310E-1,-3.062812984E-1,4.402793646E-1,1.018385315E1
1.998844400E-1,2.871387079E-2,8.135596663E-2,1.035613632E1
2.020096480E-1,1.627119333E-1,2.392822690E-2,1.016949654E1
2.041348560E-1,9.571290761E-2,9.571290761E-2,1.006899738E1
2.062600650E-1,-1.339980662E-1,1.866401732E-1,1.017906761E1
2.083852730E-1,-2.249253243E-1,5.359922647E-1,1.003549862E1
2.105104810E-1,-2.392822653E-1,7.657032609E-1,9.968499184E0
2.126356900E-1,-7.657032460E-2,6.508477330E-1,1.012642574E1
2.147608980E-1,1.196411327E-1,6.460621357E-1,1.004985523E1
2.168861060E-1,8.135596663E-2,8.087740541E-1,9.915857315E0
2.190113150E-1,-5.264209956E-2,9.236295223E-1,1.002592659E1
2.211365230E-1,-4.115654826E-1,8.039883971E-1,1.038485050E1
2.232617310E-1,-6.077769399E-1,4.977070987E-1,1.058584690E1
2.253869400E-1,-3.206382394E-1,3.589234054E-1,1.058106136E1
2.275121480E-1,-1.962114573E-1,1.483550072E-1,1.060499001E1
2.296373560E-1,-1.387837082E-1,-9.571290575E-3,1.041356373E1
2.317625650E-1,-8.614161611E-2,-5.742774159E-2,1.009292603E1
2.338877730E-1,-2.967100143E-1,-9.571290761E-2,9.887143135E0
2.360129810E-1,-3.637090325E-1,2.392822690E-2,9.743574142E0
2.381381900E-1,-3.828516230E-2,3.876372576E-1,9.533005714E0
2.402633980E-1,2.249253243E-1,6.604190469E-1,9.561718941E0
2.423886060E-1,2.344966233E-1,6.364908218E-1,9.738788605E0
2.445138150E-1,1.866401732E-1,6.508477330E-1,9.805787086E0
2.466389710E-1,-1.914258115E-2,8.374879360E-1,9.844072342E0
2.487641790E-1,-2.919243574E-1,9.044869542E-1,9.949356079E0
2.508893880E-1,-3.349951804E-1,5.838487148E-1,9.896714211E0
2.530145960E-1,-4.067798555E-1,2.871387303E-1,9.710074425E0
2.551398040E-1,-3.828516304E-1,3.972085714E-1,9.470791817E0
2.572650130E-1,-2.871387303E-1,4.929214716E-1,9.494720459E0
2.593902210E-1,-3.684946895E-1,3.254238665E-1,9.781859398E0
2.615154290E-1,-4.546363056E-1,1.866401732E-1,9.949356079E0
2.636406380E-1,-2.344966233E-1,-7.657032460E-2,1.015035343E1
2.657658460E-1,-1.531406492E-1,-2.632105052E-1,1.033220863E1
2.678910540E-1,3.349951655E-2,1.818545163E-1,1.013599682E1
2.700162630E-1,-9.571290575E-3,6.221339107E-1,9.958928108E0
2.721414710E-1,-3.637090325E-1,6.029912829E-1,1.003549862E1
2.742666790E-1,-4.115654826E-1,6.508477330E-1,9.820143700E0
2.763918880E-1,-3.541377485E-1,8.087740541E-1,9.681360245E0
2.785170960E-1,-2.823530734E-1,6.412764788E-1,9.786644936E0
2.806423040E-1,-1.818545163E-1,4.163511395E-1,9.868000984E0
2.827675130E-1,-2.919243574E-1,3.397808075E-1,9.796216011E0
2.848927210E-1,-3.924229145E-1,4.642075896E-1,9.939785004E0
2.870179290E-1,-4.115654826E-1,3.349951804E-1,1.019342422E1
2.891431380E-1,-3.589234054E-1,-1.435693540E-2,1.017428207E1
2.912683460E-1,3.349951655E-2,-9.571290761E-2,1.000199890E1
2.933935540E-1,3.924229145E-1,-2.727817893E-1,9.997213364E0
2.955187630E-1,3.732803464E-1,-2.057827413E-1,9.834501266E0
2.976439190E-1,4.211367965E-1,6.125625968E-1,9.494720459E0
2.997691270E-1,2.440679073E-1,9.475577474E-1,9.623932838E0
3.018943360E-1,-7.178468257E-2,7.082754970E-1,9.858428955E0
3.040195440E-1,1.914258115E-2,7.034898400E-1,9.767501831E0
3.061447520E-1,3.732803464E-1,6.556333899E-1,9.705288887E0
3.082699610E-1,2.440679073E-1,5.694918036E-1,9.748359680E0
3.103951690E-1,1.914258115E-2,5.407779217E-1,9.781859398E0
3.125203770E-1,-4.067798555E-1,5.407779217E-1,9.743574142E0
3.146455860E-1,-5.168496966E-1,5.216353536E-1,9.757930756E0
3.167707940E-1,-3.445664644E-1,3.349951804E-1,9.992427826E0
3.188960020E-1,-6.699903309E-2,-3.349951655E-2,1.020778179E1
3.210212110E-1,1.722832322E-1,-8.135596663E-2,1.021256733E1
3.231464190E-1,9.571290761E-2,-1.148554832E-1,1.035135078E1
3.252716270E-1,-1.531406492E-1,4.785645287E-3,1.041356373E1
3.273968360E-1,-3.110669553E-1,5.599204898E-1,1.007856941E1
3.295220440E-1,-3.876372576E-1,8.757730722E-1,9.853643417E0
3.316472520E-1,-2.871387303E-1,6.125625968E-1,9.786644936E0
3.337724610E-1,-7.657032460E-2,6.364908218E-1,9.461220741E0
3.358976690E-1,8.614161611E-2,8.566305041E-1,9.370293617E0
3.380228770E-1,-8.614161611E-2,7.944171429E-1,9.729216576E0
3.401480860E-1,-3.397808075E-1,6.125625968E-1,1.015513897E1
3.422732940E-1,-5.886343718E-1,4.546363056E-1,1.042792130E1
3.443985020E-1,-3.637090325E-1,2.919243574E-1,1.057627583E1
3.465237110E-1,-8.614161611E-2,3.349951655E-2,1.063370419E1
3.486489190E-1,-1.435693540E-2,-1.052841991E-1,1.038485050E1
3.507741270E-1,-6.221338734E-2,-2.105683982E-1,1.007856941E1
3.528993360E-1,-1.531406492E-1,-2.727817893E-1,9.954142570E0
3.550245440E-1,-2.105683982E-1,-1.818545163E-1,9.810572624E0
3.571497520E-1,-3.349951655E-2,2.584248483E-1,9.518648148E0
3.592749610E-1,1.579262912E-1,6.125625968E-1,9.442078590E0
3.614001690E-1,2.249253243E-1,6.077769399E-1,9.518648148E0
3.635253250E-1,2.775674164E-1,7.322037220E-1,9.360722542E0
3.656505330E-1,1.244267747E-1,1.000199914E0,9.336793900E0
3.677757420E-1,-9.571290761E-2,9.667003751E-1,9.561718941E0
3.699009500E-1,-2.488535494E-1,6.029912829E-1,9.743574142E0
3.720261580E-1,-2.344966233E-1,4.067798555E-1,9.724431038E0
3.741513670E-1,-1.962114573E-1,3.637090325E-1,9.738788605E0
3.762765750E-1,-1.148554832E-1,4.163511395E-1,9.949356079E0
3.784017830E-1,-2.679961324E-1,3.445664644E-1,1.021256733E1
3.805269920E-1,-3.972085714E-1,2.440679073E-1,1.029392338E1
3.826522000E-1,-3.684946895E-1,-1.052841991E-1,1.040877819E1
3.847774080E-1,-3.541377485E-1,-1.722832322E-1,1.021735287E1
3.869026170E-1,-1.387837082E-1,3.684946895E-1,9.767501831E0
3.890278250E-1,-1.627119333E-1,6.652047038E-1,9.719645500E0
3.911530330E-1,-1.962114573E-1,6.412764788E-1,9.844072342E0
3.932782420E-1,-3.206382394E-1,7.322037220E-1,9.882357597E0
3.954034500E-1,-1.914258152E-1,8.662018180E-1,1.004028416E1
3.975286580E-1,-1.531406492E-1,5.886343718E-1,1.028913784E1
3.996538670E-1,-1.052841991E-1,1.579262912E-1,1.032263660E1
4.017790750E-1,-2.584248483E-1,1.627119333E-1,1.009292603E1
4.039042830E-1,-2.919243574E-1,3.302095234E-1,1.003071213E1
4.060294920E-1,-4.019941986E-1,2.297109663E-1,1.015035343E1
4.081547000E-1,-3.972085714E-1,1.531406492E-1,1.002114105E1
4.102799080E-1,-4.785645287E-3,1.148554832E-1,9.877572060E0
4.124051170E-1,2.249253243E-1,-3.062812984E-1,9.906285286E0
4.145303250E-1,2.297109663E-1,-6.221338734E-2,9.595218658E0
4.166555330E-1,3.876372576E-1,7.848458290E-1,9.279366493E0
4.187806900E-1,2.249253243E-1,9.427721500E-1,9.533005714E0
4.209058980E-1,4.785645287E-3,7.513462901E-1,9.801001549E0
4.230311060E-1,1.579262912E-1,8.757730722E-1,9.891928673E0
4.251563150E-1,3.972085714E-1,6.795616150E-1,1.005464077E1
4.272815230E-1,4.019941986E-1,4.259224236E-1,1.015035343E1
4.294067310E-1,2.392822653E-1,3.732803464E-1,9.963713646E0
4.315319400E-1,-2.249253243E-1,4.450650215E-1,9.810572624E0
4.336571480E-1,-5.024927258E-1,3.158525825E-1,9.877572060E0
4.357823560E-1,-4.115654826E-1,8.135596663E-2,9.987641335E0
4.379075650E-1,-1.914258152E-1,-1.004985496E-1,1.007856941E1
4.400327730E-1,7.178468257E-2,-1.148554832E-1,1.009292603E1
4.421579810E-1,1.435693540E-2,-1.387837082E-1,1.007856941E1
4.442831900E-1,-1.339980662E-1,1.627119333E-1,9.997213364E0
4.464083980E-1,-3.445664644E-1,8.518448472E-1,9.868000984E0
4.485336060E-1,-4.354937077E-1,1.019342422E0,9.925428391E0
4.506587630E-1,-2.440679073E-1,7.274180651E-1,1.002592659E1
4.527840230E-1,4.307080805E-2,7.944171429E-1,9.901499748E0
4.549092310E-1,1.962114573E-1,8.470591903E-1,9.872786522E0
4.570344400E-1,0.000000000E0,7.609176040E-1,1.004985523E1
4.591596480E-1,-3.637090325E-1,6.652047038E-1,1.025085258E1
4.612848560E-1,-7.130611539E-1,4.546363056E-1,1.035135078E1
4.634100650E-1,-7.178468108E-1,2.727817893E-1,1.047099209E1
4.655352730E-1,-3.206382394E-1,3.828516230E-2,1.051884842E1
4.676604810E-1,-1.531406492E-1,-1.387837082E-1,1.043749237E1
4.697856900E-1,-8.614161611E-2,-2.153540403E-1,1.020778179E1
4.719108980E-1,-1.387837082E-1,-2.249253243E-1,1.006421185E1
4.740360540E-1,-2.249253243E-1,2.871387079E-2,9.987641335E0
4.761613150E-1,-1.435693651E-1,4.067798555E-1,9.815358162E0
4.782864710E-1,-1.052841991E-1,5.312066078E-1,9.805787086E0
4.804116790E-1,2.871387079E-2,4.642075896E-1,9.777072906E0
4.825368880E-1,1.483550072E-1,7.848458290E-1,9.461220741E0
4.846620960E-1,4.785645381E-2,1.057627559E0,9.375079155E0
4.867873040E-1,-1.914258152E-1,1.033699393E0,9.499505997E0
4.889125130E-1,-4.642075896E-1,7.513462901E-1,9.590433121E0
4.910377210E-1,-4.881358147E-1,4.259224236E-1,9.657432556E0
4.931629290E-1,-2.105683982E-1,3.684946895E-1,9.834501266E0
4.952881380E-1,-2.392822690E-2,1.962114573E-1,1.006421185E1
4.974133460E-1,-9.571290761E-2,-1.004985496E-1,1.024128056E1
4.995385540E-1,-2.727817893E-1,-6.221338734E-2,1.035135078E1
5.016637630E-1,-3.924229145E-1,-2.297109663E-1,1.046620655E1
5.037889710E-1,-3.828516304E-1,-1.004985496E-1,1.020299530E1
5.059141790E-1,-8.135596663E-2,3.876372576E-1,9.877572060E0
5.080393880E-1,-9.571290761E-2,4.785645306E-1,9.853643417E0
5.101645960E-1,-1.962114573E-1,4.929214716E-1,9.801001549E0
5.122898040E-1,-1.818545163E-1,7.274180651E-1,9.652647018E0
5.144150130E-1,-2.727817893E-1,8.183453679E-1,9.734002113E0
5.165402210E-1,-3.972085714E-1,7.369893789E-1,9.901499748E0
5.186654290E-1,-4.594219327E-1,4.019941986E-1,9.930213928E0
5.207906380E-1,-4.881358147E-1,1.818545163E-1,9.887143135E0
5.229158460E-1,-4.498506486E-1,2.249253243E-1,1.000678444E1
5.250410540E-1,-4.402793646E-1,1.818545163E-1,1.025085258E1
5.271662630E-1,-4.689932466E-1,4.785645381E-2,1.030349445E1
5.292914710E-1,-1.818545163E-1,2.392822690E-2,1.022692394E1
5.314166790E-1,7.178468257E-2,-2.297109663E-1,1.019820976E1
5.335418880E-1,2.009970993E-1,1.196411327E-1,9.772287369E0
5.356670960E-1,1.818545163E-1,7.226324677E-1,9.384650230E0
5.377922520E-1,-4.785645381E-2,8.614161611E-1,9.523433685E0
5.399175130E-1,-2.105683982E-1,8.039883971E-1,9.600004196E0
5.420426690E-1,-2.057827413E-1,8.470591903E-1,9.494720459E0
5.441678770E-1,-2.871387079E-2,5.934200287E-1,9.619147301E0
5.462930860E-1,1.292124242E-1,3.493520916E-1,9.738788605E0
5.484182940E-1,6.221338734E-2,2.727817893E-1,9.647860527E0
5.505435020E-1,-1.435693651E-1,3.972085714E-1,9.590433121E0
5.526687110E-1,-2.727817893E-1,5.024927258E-1,9.824930191E0
5.547939190E-1,-3.206382394E-1,3.062812984E-1,1.015992451E1
5.569191270E-1,-2.201396823E-1,9.092725813E-2,1.023649502E1
5.590443360E-1,1.914258115E-2,-6.221338734E-2,1.021735287E1
5.611695440E-1,-3.828516230E-2,-5.742774159E-2,1.016949654E1
5.632947520E-1,-9.571290761E-2,3.206382394E-1,9.906285286E0
5.654199610E-1,-1.339980662E-1,7.752745152E-1,9.734002113E0
5.675451690E-1,-2.488535494E-1,9.044869542E-1,9.820143700E0
5.696703770E-1,-2.392822653E-1,7.322037220E-1,9.887143135E0
5.717955860E-1,4.785645287E-3,6.699903607E-1,9.734002113E0
5.739207940E-1,1.244267747E-1,6.460621357E-1,9.781859398E0
5.760460020E-1,-6.221338734E-2,6.508477330E-1,9.930213928E0
5.781712110E-1,-4.689932466E-1,6.604190469E-1,1.002592659E1
5.802964190E-1,-7.178468108E-1,5.742774606E-1,1.014078236E1
5.824216270E-1,-6.317051649E-1,3.732803464E-1,1.031306553E1
5.845468360E-1,-3.445664644E-1,-6.221338734E-2,1.042792130E1
5.866720440E-1,-1.244267747E-1,-8.614161611E-2,1.012642574E1
5.887972520E-1,-2.392822690E-2,-2.727817893E-1,1.005942631E1
5.909224610E-1,-4.785645287E-3,-9.092725813E-2,9.963713646E0
5.930476690E-1,-1.818545163E-1,4.307080805E-1,9.805787086E0
5.951728770E-1,-1.387837082E-1,7.657032609E-1,9.801001549E0
5.972980860E-1,-4.785645381E-2,6.987041831E-1,9.863214493E0
5.994232420E-1,1.387837082E-1,6.269195080E-1,9.700503349E0
6.015484500E-1,1.579262912E-1,7.369893789E-1,9.379864693E0
6.036736580E-1,2.871387079E-2,8.470591903E-1,9.355937004E0
6.057988670E-1,-3.302095234E-1,8.662018180E-1,9.413364410E0
6.079240750E-1,-7.034898400E-1,6.508477330E-1,9.408578873E0
6.100492830E-1,-5.503492355E-1,3.924229145E-1,9.485149384E0
6.121744920E-1,-2.871387303E-1,3.589234054E-1,9.681360245E0
6.142997000E-1,-6.221338734E-2,1.435693651E-1,9.934999466E0
6.164249080E-1,-2.871387079E-2,4.785645287E-3,1.001156998E1
6.185501170E-1,-1.196411327E-1,9.571290575E-3,1.021256733E1
6.206753250E-1,-3.493520916E-1,-1.292124242E-1,1.032742214E1
6.228005330E-1,-2.967100143E-1,2.775674164E-1,1.002114105E1
6.249257420E-1,-1.004985496E-1,5.934200287E-1,9.930213928E0
6.270509500E-1,-1.196411327E-1,5.790630579E-1,9.987641335E0
6.291761580E-1,1.435693540E-2,6.269195080E-1,9.772287369E0
6.313013670E-1,-7.657032460E-2,9.379864931E-1,9.600004196E0
6.334265750E-1,-3.062812984E-1,9.810572863E-1,9.748359680E0
6.355517830E-1,-4.307080805E-1,7.034898400E-1,9.863214493E0
6.376769920E-1,-4.594219327E-1,3.158525825E-1,9.815358162E0
6.398022000E-1,-2.871387303E-1,2.057827413E-1,9.762716293E0
6.419274080E-1,-1.339980662E-1,1.483550072E-1,9.987641335E0
6.440526170E-1,-1.052841991E-1,1.435693540E-2,1.014078236E1
6.461778250E-1,-1.818545163E-1,3.828516230E-2,1.002114105E1
6.483030330E-1,-8.614161611E-2,-3.828516230E-2,1.004506969E1
6.504282420E-1,1.914258115E-2,-3.828516230E-2,9.958928108E0
6.525534500E-1,3.302095234E-1,4.019941986E-1,9.595218658E0
6.546786580E-1,3.349951804E-1,7.657032609E-1,9.389435768E0
6.568038670E-1,2.153540403E-1,8.662018180E-1,9.595218658E0
6.589290750E-1,0.000000000E0,8.949156404E-1,9.633503914E0
6.610542310E-1,-4.785645381E-2,9.619147182E-1,9.552147865E0
6.631794400E-1,-9.571290575E-3,6.699903607E-1,9.757930756E0
6.653047000E-1,4.785645287E-3,3.924229145E-1,9.824930191E0
6.674298560E-1,-1.244267747E-1,3.206382394E-1,9.619147301E0
6.695550650E-1,-1.866401732E-1,4.498506486E-1,9.619147301E0
6.716802730E-1,-2.201396823E-1,4.977070987E-1,9.958928108E0
6.738054810E-1,-2.105683982E-1,3.062812984E-1,1.019342422E1
6.759306900E-1,-9.092725813E-2,7.178468257E-2,1.018863869E1
6.780558980E-1,1.579262912E-1,-1.962114573E-1,1.026520920E1
6.801811060E-1,1.483550072E-1,-1.579262912E-1,1.016471100E1
6.823063150E-1,1.339980662E-1,3.828516304E-1,9.805787086E0
6.844315230E-1,5.264209956E-2,8.709874153E-1,9.781859398E0
6.865567310E-1,-1.292124242E-1,1.038485050E0,1.000199890E1
6.886819400E-1,-1.770688742E-1,1.000199914E0,9.968499184E0
6.908071480E-1,2.871387079E-2,8.901300430E-1,9.853643417E0
6.929323560E-1,1.483550072E-1,7.657032609E-1,9.858428955E0
6.950575650E-1,1.435693651E-1,6.604190469E-1,9.891928673E0
6.971827730E-1,-1.339980662E-1,6.843472719E-1,9.954142570E0
6.993079810E-1,-3.828516304E-1,5.982056856E-1,1.015035343E1
7.014331900E-1,-4.642075896E-1,3.397808075E-1,1.040399265E1
7.035583980E-1,-3.445664644E-1,7.178468257E-2,1.047099209E1
7.056836060E-1,-3.349951655E-2,-1.722832322E-1,1.036570740E1
7.078088150E-1,3.828516230E-2,-2.249253243E-1,1.016949654E1
7.099340230E-1,7.178468257E-2,8.135596663E-2,1.001635551E1
7.120592310E-1,5.264209956E-2,6.077769399E-1,9.858428955E0
7.141844400E-1,-1.244267747E-1,9.284151793E-1,9.915857315E0
7.163096480E-1,4.785645287E-3,8.470591903E-1,9.944570541E0
7.184348560E-1,1.579262912E-1,7.130611539E-1,9.805787086E0
7.205600650E-1,2.679961324E-1,8.279166222E-1,9.537791252E0
7.226852730E-1,7.178468257E-2,8.805587292E-1,9.566504478E0
7.248104810E-1,-2.297109663E-1,8.422735929E-1,9.686145782E0
7.269356900E-1,-5.934200287E-1,7.465606928E-1,9.710074425E0
7.290608980E-1,-6.412764788E-1,6.077769399E-1,9.815358162E0
7.311860540E-1,-3.589234054E-1,3.589234054E-1,9.992427826E0
7.333112630E-1,-5.264209956E-2,1.387837082E-1,9.968499184E0
7.354364710E-1,4.307080805E-2,8.135596663E-2,9.901499748E0
7.375616790E-1,9.092725813E-2,1.148554832E-1,1.001156998E1
7.396868880E-1,-1.674975902E-1,2.201396823E-1,1.006899738E1
7.418120960E-1,-2.679961324E-1,5.120640397E-1,9.887143135E0
7.439373040E-1,-1.914258152E-1,6.412764788E-1,9.915857315E0
7.460625130E-1,-9.092725813E-2,6.843472719E-1,9.958928108E0
7.481877210E-1,1.004985496E-1,7.896314859E-1,9.829715729E0
7.503129290E-1,6.221338734E-2,9.379864931E-1,9.863214493E0
7.524381380E-1,-1.531406492E-1,9.858429432E-1,1.000199890E1
7.545633460E-1,-3.637090325E-1,7.992027402E-1,1.005942631E1
7.566885540E-1,-4.689932466E-1,5.024927258E-1,9.954142570E0
7.588137630E-1,-3.206382394E-1,3.397808075E-1,9.848857880E0
7.609389710E-1,-1.196411327E-1,2.009970993E-1,9.911071777E0
7.630641790E-1,0.000000000E0,1.387837082E-1,9.954142570E0
7.651893880E-1,-9.571290575E-3,1.914258152E-1,9.968499184E0
7.673145960E-1,-2.392822690E-2,8.135596663E-2,1.011206818E1
7.694398040E-1,2.871387079E-2,1.531406492E-1,1.013121128E1
7.715650130E-1,3.110669553E-1,5.024927258E-1,9.877572060E0
7.736902210E-1,4.019941986E-1,7.322037220E-1,9.767501831E0
7.758154290E-1,2.919243574E-1,7.417750359E-1,9.791430473E0
7.779406380E-1,9.571290761E-2,8.614161611E-1,9.686145782E0
7.800658460E-1,-5.264209956E-2,9.044869542E-1,9.585647583E0
7.821910540E-1,-2.297109663E-1,8.183453679E-1,9.638289452E0
7.843162630E-1,-1.866401732E-1,6.221339107E-1,9.619147301E0
7.864414710E-1,-2.919243574E-1,4.642075896E-1,9.528220177E0
7.885666790E-1,-2.536391914E-1,5.264210105E-1,9.561718941E0
7.906918880E-1,-2.440679073E-1,6.077769399E-1,9.891928673E0
7.928170960E-1,-2.775674164E-1,5.264210105E-1,1.026042366E1
7.949423040E-1,-1.244267747E-1,3.732803464E-1,1.036092186E1
7.970674610E-1,-9.571290575E-3,1.004985496E-1,1.041835022E1
7.991926690E-1,9.571290761E-2,1.914258115E-2,1.028913784E1
8.013178770E-1,1.196411327E-1,4.163511395E-1,9.997213364E0
8.034430860E-1,6.699903309E-2,8.039883971E-1,1.002114105E1
8.055682940E-1,-1.674975902E-1,8.662018180E-1,1.016949654E1
8.076935020E-1,-2.632105052E-1,9.140582681E-1,1.007856941E1
8.098187110E-1,-1.387837082E-1,8.470591903E-1,1.002114105E1
8.119439190E-1,-7.178468257E-2,6.987041831E-1,9.911071777E0
8.140691270E-1,-1.770688742E-1,5.503492355E-1,9.791430473E0
8.161943360E-1,-3.206382394E-1,6.029912829E-1,9.762716293E0
8.183195440E-1,-4.259224236E-1,5.647061467E-1,9.968499184E0
8.204447520E-1,-5.072783828E-1,3.780659735E-1,1.019820976E1
8.225699610E-1,-2.775674164E-1,1.531406492E-1,1.034177971E1
8.246951690E-1,4.307080805E-2,-1.100698411E-1,1.035613632E1
8.268203770E-1,1.962114573E-1,-2.201396823E-1,1.023649502E1
8.289455860E-1,2.440679073E-1,1.435693651E-1,9.992427826E0
8.310707940E-1,5.742774159E-2,6.077769399E-1,9.791430473E0
8.331960020E-1,-1.435693651E-1,8.662018180E-1,9.719645500E0
8.353212110E-1,-1.148554832E-1,7.226324677E-1,9.676574707E0
8.374464190E-1,0.000000000E0,5.790630579E-1,9.432506561E0
8.395716270E-1,7.178468257E-2,6.508477330E-1,9.231510162E0
8.416968360E-1,-1.435693540E-2,7.513462901E-1,9.293723106E0
8.438220440E-1,-2.871387303E-1,7.417750359E-1,9.403793335E0
8.459472520E-1,-7.082754970E-1,7.082754970E-1,9.485149384E0
8.480724610E-1,-7.704889178E-1,6.556333899E-1,9.667003632E0
8.501976690E-1,-4.450650215E-1,4.067798555E-1,9.954142570E0
8.523228770E-1,-1.435693651E-1,1.292124242E-1,1.004506969E1
8.544480860E-1,-4.785645381E-2,6.221338734E-2,1.004506969E1
8.565732940E-1,-1.339980662E-1,-4.307080805E-2,1.005464077E1
8.586985020E-1,-4.019941986E-1,2.440679073E-1,9.920642853E0
8.608237110E-1,-5.886343718E-1,6.460621357E-1,9.848857880E0
8.629489190E-1,-4.881358147E-1,7.369893789E-1,9.872786522E0
8.650741270E-1,-3.397808075E-1,6.556333899E-1,9.858428955E0
8.671993360E-1,-1.531406492E-1,6.795616150E-1,9.724431038E0
8.693244920E-1,-1.722832322E-1,7.752745152E-1,9.772287369E0
8.714497520E-1,-3.732803464E-1,8.135597110E-1,9.887143135E0
8.735749080E-1,-6.029912829E-1,5.838487148E-1,9.925428391E0
8.757001170E-1,-6.939185858E-1,3.397808075E-1,9.949356079E0
8.778253250E-1,-4.211367965E-1,2.105683982E-1,1.005942631E1
8.799505330E-1,-2.297109663E-1,1.914258115E-2,1.025085258E1
8.820757420E-1,-8.614161611E-2,-6.699903309E-2,1.010249710E1
8.842009500E-1,-2.392822690E-2,-9.571290575E-3,9.939785004E0
8.863261580E-1,-2.057827413E-1,-1.387837082E-1,9.939785004E0
8.884513670E-1,-2.201396823E-1,1.627119333E-1,9.489934921E0
8.905765750E-1,8.614161611E-2,5.072783828E-1,9.303294182E0
8.927017830E-1,1.914258152E-1,6.077769399E-1,9.427721024E0
8.948269920E-1,1.483550072E-1,7.226324677E-1,9.518648148E0
8.969522000E-1,8.614161611E-2,9.236295223E-1,9.714859962E0
8.990774080E-1,4.785645287E-3,8.374879360E-1,9.939785004E0
9.012026170E-1,-1.579262912E-1,6.317051649E-1,1.008814049E1
9.033278250E-1,-1.627119333E-1,2.775674164E-1,9.925428391E0
9.054530330E-1,-1.483550072E-1,1.531406492E-1,9.580862045E0
9.075782420E-1,-9.571290761E-2,2.153540403E-1,9.528220177E0
9.097034500E-1,-1.483550072E-1,5.742774159E-2,9.911071777E0
9.118286580E-1,-2.584248483E-1,4.785645381E-2,1.010249710E1
9.139538670E-1,-2.679961324E-1,-6.221338734E-2,1.026042366E1
9.160790750E-1,-2.440679073E-1,-3.589234054E-1,1.026042366E1
9.182042830E-1,-1.148554832E-1,-2.440679073E-1,9.887143135E0
9.203294920E-1,3.828516230E-2,3.302095234E-1,9.571290970E0
9.224547000E-1,-9.571290575E-3,5.647061467E-1,9.777072906E0
9.245799080E-1,-2.584248483E-1,6.699903607E-1,9.982855797E0
9.267051170E-1,-1.962114573E-1,8.709874153E-1,1.002592659E1
9.288303250E-1,-1.387837082E-1,7.322037220E-1,1.012164021E1
9.309555330E-1,-1.004985496E-1,4.785645306E-1,9.987641335E0
9.330807420E-1,-2.440679073E-1,3.589234054E-1,9.767501831E0
9.352059500E-1,-4.259224236E-1,3.732803464E-1,9.753145218E0
9.373377730E-1,-5.024927258E-1,3.349951804E-1,1.004985523E1
9.394563670E-1,-5.934200287E-1,1.292124242E-1,1.031785107E1
9.415815750E-1,-4.737788737E-1,-4.785645381E-2,1.030349445E1
9.437067830E-1,-1.339980662E-1,-5.120640397E-1,1.030827999E1
9.458319920E-1,1.100698411E-1,-6.412764788E-1,1.008814049E1
9.479571480E-1,3.254238665E-1,-2.153540403E-1,9.805787086E0
9.500823560E-1,2.679961324E-1,2.009970993E-1,9.901499748E0
9.522076170E-1,-2.392822690E-2,5.742774606E-1,1.011206818E1
9.543328250E-1,0.000000000E0,5.599204898E-1,1.013599682E1
9.564579810E-1,2.392822690E-2,5.503492355E-1,9.853643417E0
9.585831900E-1,1.244267747E-1,5.790630579E-1,9.628718376E0
9.607083980E-1,9.571290575E-3,5.120640397E-1,9.475577354E0
9.628336060E-1,-2.105683982E-1,5.312066078E-1,9.384650230E0
9.649588150E-1,-5.742774606E-1,5.551348329E-1,9.451649666E0
9.670840230E-1,-7.896314859E-1,5.120640397E-1,9.829715729E0
9.692092310E-1,-5.551348329E-1,2.584248483E-1,1.019342422E1
9.713344400E-1,-1.244267747E-1,2.392822690E-2,1.026999474E1
9.734596480E-1,8.614161611E-2,-1.100698411E-1,1.027956581E1
9.755848560E-1,0.000000000E0,-2.488535494E-1,1.034656525E1
9.777100650E-1,-2.536391914E-1,-1.435693540E-2,1.034177971E1
9.798352730E-1,-2.584248483E-1,2.919243574E-1,1.029870892E1
9.819604810E-1,-4.546363056E-1,3.110669553E-1,1.033220863E1
9.840856900E-1,-2.344966233E-1,3.302095234E-1,1.017428207E1
9.862108980E-1,-1.435693540E-2,5.742774606E-1,9.877572060E0
9.883361060E-1,-4.785645287E-3,5.647061467E-1,9.767501831E0
9.904613150E-1,-2.679961324E-1,7.465606928E-1,9.815358162E0
9.925865230E-1,-5.599204898E-1,6.364908218E-1,9.987641335E0
9.947117310E-1,-6.125625968E-1,3.206382394E-1,1.020299530E1
9.968368880E-1,-3.302095234E-1,8.135596663E-2,1.033699417E1
9.989621480E-1,-5.264209956E-2,-6.221338734E-2,1.029870892E1
1.001087356E0,1.483550072E-1,-1.914258152E-1,1.013599682E1
1.003212565E0,2.727817893E-1,-1.818545163E-1,1.015035343E1
1.005337773E0,1.627119333E-1,-2.153540403E-1,1.010728264E1
1.007462981E0,1.004985496E-1,1.770688742E-1,9.901499748E0
1.009588190E0,2.249253243E-1,4.163511395E-1,9.882357597E0
1.011713398E0,3.828516304E-1,4.881358147E-1,9.896714211E0
1.013838606E0,3.780659735E-1,5.503492355E-1,9.805787086E0
1.015963815E0,3.397808075E-1,6.939185858E-1,9.810572624E0
1.018089023E0,1.483550072E-1,7.130611539E-1,9.911071777E0
1.020214231E0,-5.264209956E-2,6.029912829E-1,9.958928108E0
1.022339440E0,-1.674975902E-1,4.402793646E-1,9.982855797E0
1.024464648E0,-2.009970993E-1,2.919243574E-1,9.810572624E0
1.026589856E0,-7.657032460E-2,3.014956415E-1,9.891928673E0
1.028715013E0,2.392822690E-2,1.483550072E-1,1.020778179E1
1.030840221E0,2.392822690E-2,1.004985496E-1,1.037527943E1
1.032965429E0,-1.100698411E-1,-1.148554832E-1,1.064327526E1
1.035090690E0,-1.627119333E-1,-3.158525825E-1,1.062891865E1
1.037215898E0,1.435693540E-2,-1.435693651E-1,1.024606609E1
1.039341054E0,1.435693540E-2,2.392822653E-1,1.003549862E1
1.041466263E0,-1.196411327E-1,5.838487148E-1,9.930213928E0
1.043591471E0,-2.153540403E-1,7.704889178E-1,1.004506969E1
1.045716679E0,-2.488535494E-1,9.762716293E-1,1.019820976E1
1.047841888E0,-2.488535494E-1,8.805587292E-1,1.035135078E1
1.049967096E0,-9.092725813E-2,6.125625968E-1,1.048056316E1
1.052092304E0,-1.914258115E-2,3.876372576E-1,1.048056316E1
1.054217513E0,-1.196411327E-1,2.632105052E-1,1.049491978E1
1.056342721E0,-2.632105052E-1,2.009970993E-1,1.059063339E1
1.058467929E0,-3.397808075E-1,9.571290761E-2,1.069113159E1
1.060593138E0,-3.589234054E-1,-6.221338734E-2,1.058106136E1
1.062718346E0,-2.009970993E-1,-4.259224236E-1,1.031306553E1
1.064843554E0,1.148554832E-1,-5.838487148E-1,1.004985523E1
1.066968763E0,2.632105052E-1,-1.435693651E-1,9.805787086E0
1.069093971E0,2.775674164E-1,3.493520916E-1,9.891928673E0
1.071219179E0,9.092725813E-2,6.317051649E-1,1.014078236E1
1.073344388E0,3.828516230E-2,6.412764788E-1,1.030349445E1
1.075469596E0,1.818545163E-1,7.369893789E-1,1.007378292E1
1.077594804E0,1.914258152E-1,5.168496966E-1,9.786644936E0
1.079720013E0,1.148554832E-1,6.077769399E-1,9.489934921E0
1.081845221E0,-6.699903309E-2,6.125625968E-1,9.312865257E0
1.083970429E0,-3.397808075E-1,6.077769399E-1,9.533005714E0
1.086095638E0,-5.407779217E-1,5.982056856E-1,1.005942631E1
1.088220846E0,-2.967100143E-1,3.493520916E-1,1.036570740E1
1.090346054E0,-4.307080805E-2,-1.435693540E-2,1.047099209E1
1.092471263E0,8.614161611E-2,-1.674975902E-1,1.031306553E1
1.094596471E0,4.785645381E-2,-2.105683982E-1,1.020778179E1
1.096721679E0,-1.292124242E-1,9.092725813E-2,1.011685371E1
1.098846888E0,-3.302095234E-1,4.785645306E-1,1.020299530E1
1.100972096E0,-4.642075896E-1,5.407779217E-1,1.043749237E1
1.103097304E0,-3.158525825E-1,5.455635786E-1,1.037049294E1
1.105222513E0,-1.004985496E-1,4.881358147E-1,1.011206818E1
1.107347721E0,-1.387837082E-1,5.216353536E-1,9.958928108E0
1.109472929E0,-2.201396823E-1,5.647061467E-1,1.008335495E1
1.111598086E0,-5.216353536E-1,4.833501875E-1,1.019342422E1
1.113723346E0,-6.747759581E-1,2.967100143E-1,1.028435135E1
1.115848554E0,-4.594219327E-1,2.009970993E-1,1.033699417E1
1.117973763E0,-1.818545163E-1,4.785645287E-3,1.019342422E1
1.120098867E0,1.914258115E-2,-1.722832322E-1,9.911071777E0
1.122224179E0,2.392822690E-2,-3.828516230E-2,9.820143700E0
1.124349388E0,-8.135596663E-2,-8.614161611E-2,9.915857315E0
1.126474544E0,-8.135596663E-2,2.775674164E-1,9.882357597E0
1.128599752E0,2.105683982E-1,5.694918036E-1,1.000199890E1
1.130724961E0,3.062812984E-1,5.647061467E-1,1.006899738E1
1.132850169E0,3.014956415E-1,5.694918036E-1,9.920642853E0
1.134975325E0,3.828516304E-1,7.322037220E-1,9.686145782E0
1.137100586E0,7.657032460E-2,6.604190469E-1,9.719645500E0
1.139225794E0,-2.823530734E-1,6.987041831E-1,9.576076508E0
1.141351002E0,-3.828516304E-1,5.599204898E-1,9.614361763E0
1.143476211E0,-2.727817893E-1,3.254238665E-1,9.724431038E0
1.145601419E0,-7.178468257E-2,2.679961324E-1,9.820143700E0
1.147726627E0,1.148554832E-1,1.339980662E-1,1.012642574E1
1.149851836E0,6.699903309E-2,1.292124242E-1,1.026042366E1
1.151977044E0,-1.100698411E-1,1.100698411E-1,1.035613632E1
1.154102252E0,-2.057827413E-1,-8.135596663E-2,1.025085258E1
1.156227461E0,-1.914258152E-1,8.135596663E-2,9.882357597E0
1.158352669E0,-1.148554832E-1,5.359922647E-1,9.748359680E0
1.160477877E0,-2.392822690E-2,8.327022791E-1,9.930213928E0
1.162603086E0,-1.004985496E-1,9.762716293E-1,1.000199890E1
1.164728294E0,-1.531406492E-1,1.057627559E0,1.002592659E1
1.166853450E0,-2.249253243E-1,9.044869542E-1,1.012164021E1
1.168978711E0,-2.105683982E-1,5.551348329E-1,1.015513897E1
1.171103919E0,-2.488535494E-1,3.397808075E-1,1.000199890E1
1.173229127E0,-2.919243574E-1,3.062812984E-1,1.000678444E1
1.175354336E0,-3.828516304E-1,3.637090325E-1,1.027478027E1
1.177479544E0,-4.498506486E-1,3.493520916E-1,1.042313576E1
1.179604752E0,-5.168496966E-1,1.914258152E-1,1.022692394E1
1.181729961E0,-3.014956415E-1,-1.627119333E-1,1.001156998E1
1.183855169E0,-4.785645287E-3,-2.775674164E-1,9.786644936E0
1.185980377E0,2.440679073E-1,4.307080805E-2,9.700503349E0
1.188105586E0,2.344966233E-1,5.168496966E-1,9.743574142E0
1.190230794E0,5.264209956E-2,7.369893789E-1,1.002592659E1
1.192356002E0,-8.614161611E-2,8.279166222E-1,9.987641335E0
1.194481211E0,-4.307080805E-2,8.662018180E-1,9.623932838E0
1.196606419E0,-7.657032460E-2,6.987041831E-1,9.317651749E0
1.198731627E0,-4.785645287E-3,7.274180651E-1,9.131011009E0
1.200856836E0,-1.531406492E-1,6.508477330E-1,9.332008362E0
1.202982044E0,-3.206382394E-1,5.455635786E-1,9.705288887E0
1.205107252E0,-4.402793646E-1,5.072783828E-1,1.014078236E1
1.207232461E0,-3.732803464E-1,3.062812984E-1,1.024128056E1
1.209357617E0,-2.344966233E-1,0.000000000E0,9.982855797E0
1.211482825E0,-1.004985496E-1,-1.914258152E-1,9.609575272E0
1.213608086E0,-1.387837082E-1,-1.866401732E-1,9.442078590E0
1.215733294E0,-2.440679073E-1,2.584248483E-1,9.518648148E0
1.217858450E0,-3.589234054E-1,6.317051649E-1,9.958928108E0
1.219983711E0,-4.019941986E-1,8.039883971E-1,1.024606609E1
1.222108919E0,-2.967100143E-1,6.125625968E-1,1.019820976E1
1.224234075E0,-4.785645381E-2,5.503492355E-1,9.824930191E0
1.226359283E0,-1.387837082E-1,5.694918036E-1,9.662218094E0
1.228484492E0,-2.297109663E-1,6.939185858E-1,9.647860527E0
1.230609700E0,-6.699903607E-1,5.024927258E-1,9.877572060E0
1.232734908E0,-7.848458290E-1,4.498506486E-1,1.013599682E1
1.234860117E0,-5.982056856E-1,2.057827413E-1,1.019342422E1
1.236985325E0,-3.684946895E-1,1.914258115E-2,1.018385315E1
1.239110533E0,1.244267747E-1,-2.392822690E-2,9.681360245E0
1.241235742E0,2.105683982E-1,3.828516230E-2,9.509077072E0
1.243360950E0,1.674975902E-1,9.571290761E-2,9.375079155E0
1.245486158E0,1.818545163E-1,3.397808075E-1,9.671789169E0
1.247611367E0,1.339980662E-1,6.317051649E-1,9.848857880E0
1.249736575E0,2.823530734E-1,7.082754970E-1,9.939785004E0
1.251861783E0,3.924229145E-1,7.465606928E-1,9.949356079E0
1.253986992E0,2.919243574E-1,8.327022791E-1,9.686145782E0
1.256112200E0,-1.914258115E-2,8.231309652E-1,9.542576790E0
1.258237408E0,-1.674975902E-1,8.518448472E-1,9.604789734E0
1.260362617E0,-3.062812984E-1,5.647061467E-1,9.556933403E0
1.262487825E0,-2.919243574E-1,2.727817893E-1,9.681360245E0
1.264613033E0,-5.264209956E-2,1.052841991E-1,9.552147865E0
1.266738242E0,5.264209956E-2,-4.785645287E-3,9.686145782E0
1.268863450E0,-9.571290761E-2,2.488535494E-1,9.887143135E0
1.270988658E0,-2.632105052E-1,1.962114573E-1,1.003071213E1
1.273113867E0,-3.828516304E-1,2.201396823E-1,1.008335495E1
1.275239075E0,-2.249253243E-1,3.254238665E-1,9.815358162E0
1.277364283E0,-6.699903309E-2,6.173482537E-1,9.633503914E0
1.279489492E0,1.435693540E-2,6.795616150E-1,9.724431038E0
1.281614700E0,3.828516230E-2,7.896314859E-1,9.786644936E0
1.283739908E0,-7.178468257E-2,9.571290612E-1,9.925428391E0
1.285865117E0,-1.770688742E-1,7.465606928E-1,1.004985523E1
1.287990325E0,-3.110669553E-1,6.221339107E-1,9.820143700E0
1.290115533E0,-3.924229145E-1,5.312066078E-1,9.695717812E0
1.292240742E0,-3.302095234E-1,3.302095234E-1,9.786644936E0
1.294365950E0,-2.105683982E-1,3.014956415E-1,1.004506969E1
1.296491158E0,-2.249253243E-1,1.531406492E-1,1.044706345E1
1.298616367E0,-2.823530734E-1,-8.135596663E-2,1.033220863E1
1.300741575E0,-1.435693651E-1,-2.823530734E-1,9.992427826E0
1.302866783E0,1.866401732E-1,-2.536391914E-1,9.623932838E0
1.304991992E0,3.158525825E-1,5.742774159E-2,9.303294182E0
1.307117200E0,2.679961324E-1,5.216353536E-1,9.475577354E0
1.309242408E0,9.571290761E-2,9.427721500E-1,9.738788605E0
1.311367617E0,-1.100698411E-1,9.427721500E-1,9.690931320E0
1.313492825E0,-1.292124242E-1,8.518448472E-1,9.600004196E0
1.315618033E0,-6.221338734E-2,7.704889178E-1,9.265008926E0
1.317743242E0,-1.914258115E-2,6.987041831E-1,9.140582085E0
1.319868398E0,-3.349951655E-2,6.317051649E-1,9.274580956E0
1.321993658E0,-2.344966233E-1,7.274180651E-1,9.695717812E0
1.324118815E0,-4.067798555E-1,7.704889178E-1,1.016471100E1
1.326244075E0,-4.498506486E-1,5.359922647E-1,1.035135078E1
1.328369231E0,-3.684946895E-1,1.196411327E-1,1.019342422E1
1.330494492E0,-1.339980662E-1,-8.614161611E-2,9.777072906E0
1.332619648E0,-2.153540403E-1,-2.057827413E-1,9.547362328E0
1.334744908E0,-1.435693651E-1,2.297109663E-1,9.537791252E0
1.336870065E0,-2.823530734E-1,5.838487148E-1,9.944570541E0
1.338995273E0,-3.828516304E-1,5.503492355E-1,1.023649502E1
1.341120481E0,-2.536391914E-1,5.551348329E-1,1.015035343E1
1.343245690E0,4.307080805E-2,5.551348329E-1,9.710074425E0
1.345370898E0,-4.785645381E-2,6.556333899E-1,9.461220741E0
1.347496106E0,-1.004985496E-1,8.231309652E-1,9.489934921E0
1.349621367E0,-4.929214716E-1,8.231309652E-1,9.868000984E0
1.351746523E0,-5.024927258E-1,6.460621357E-1,1.032263660E1
1.353871731E0,-3.972085714E-1,3.876372576E-1,1.058106136E1
1.355996940E0,-1.722832322E-1,-5.264209956E-2,1.027478027E1
1.358122148E0,7.178468257E-2,-1.196411327E-1,9.619147301E0
1.360247356E0,2.823530734E-1,-1.148554832E-1,9.365508080E0
1.362372565E0,1.914258152E-1,1.148554832E-1,9.389435768E0
1.364497773E0,1.148554832E-1,6.269195080E-1,9.633503914E0
1.366622981E0,9.571290575E-3,8.709874153E-1,9.920642853E0
1.368748190E0,1.770688742E-1,6.891329288E-1,9.863214493E0
1.370873398E0,2.967100143E-1,6.077769399E-1,9.542576790E0
1.372998606E0,2.488535494E-1,6.556333899E-1,9.231510162E0
1.375123815E0,-4.785645287E-3,6.317051649E-1,9.332008362E0
1.377249023E0,-1.148554832E-1,7.800601721E-1,9.576076508E0
1.379374231E0,-4.259224236E-1,5.934200287E-1,9.863214493E0
1.381499440E0,-4.689932466E-1,4.019941986E-1,9.915857315E0
1.383624648E0,-2.536391914E-1,4.115654826E-1,1.014078236E1
1.385749856E0,-1.100698411E-1,1.531406492E-1,1.017428207E1
1.387875065E0,-1.579262912E-1,1.100698411E-1,9.930213928E0
1.390000273E0,-2.679961324E-1,1.914258115E-2,1.007856941E1
1.392125481E0,-2.775674164E-1,7.178468257E-2,1.002114105E1
1.394250690E0,-1.004985496E-1,2.871387303E-1,9.911071777E0
1.396375898E0,9.092725813E-2,4.115654826E-1,9.992427826E0
1.398501106E0,3.349951655E-2,5.455635786E-1,9.982855797E0
1.400626315E0,6.699903309E-2,7.274180651E-1,9.954142570E0
1.402751523E0,-3.349951655E-2,8.183453679E-1,9.920642853E0
1.404876731E0,-2.967100143E-1,8.279166222E-1,9.882357597E0
1.407001940E0,-3.493520916E-1,6.652047038E-1,9.987641335E0
1.409127148E0,-3.110669553E-1,5.120640397E-1,1.004985523E1
1.411252356E0,-1.674975902E-1,2.919243574E-1,1.029392338E1
1.413377565E0,-2.249253243E-1,1.579262912E-1,1.049491978E1
1.415502773E0,-1.627119333E-1,1.770688742E-1,1.042792130E1
1.417627981E0,-2.679961324E-1,-7.657032460E-2,1.035135078E1
1.419753190E0,-1.914258152E-1,-2.584248483E-1,1.008335495E1
1.421878398E0,-4.785645381E-2,-1.531406492E-1,9.858428955E0
1.424003606E0,1.674975902E-1,2.153540403E-1,9.724431038E0
1.426128815E0,1.100698411E-1,5.838487148E-1,9.839286804E0
1.428254023E0,1.196411327E-1,7.513462901E-1,9.954142570E0
1.430379231E0,-1.339980662E-1,7.896314859E-1,9.810572624E0
1.432504440E0,-2.775674164E-1,7.848458290E-1,9.446864128E0
1.434629648E0,-2.584248483E-1,6.747759581E-1,9.355937004E0
1.436754856E0,-1.339980662E-1,4.785645306E-1,9.365508080E0
1.438880065E0,-3.110669553E-1,4.737788737E-1,9.466006279E0
1.441005273E0,-4.354937077E-1,6.029912829E-1,9.930213928E0
1.443130481E0,-4.642075896E-1,5.982056856E-1,1.037527943E1
1.445255690E0,-4.594219327E-1,3.732803464E-1,1.033220863E1
1.447380898E0,-2.823530734E-1,1.914258115E-2,1.003549862E1
1.449506106E0,-6.699903309E-2,-2.249253243E-1,9.824930191E0
1.451631315E0,-3.349951655E-2,-3.349951655E-2,9.595218658E0
1.453756523E0,-4.785645381E-2,4.642075896E-1,9.853643417E0
1.455881731E0,-2.536391914E-1,7.752745152E-1,1.027956581E1
1.458006940E0,-4.450650215E-1,7.082754970E-1,1.046142101E1
1.460132148E0,-1.866401732E-1,7.178468108E-1,1.002592659E1
1.462257356E0,-1.292124242E-1,6.125625968E-1,9.561718941E0
1.464382565E0,-4.785645287E-3,5.359922647E-1,9.298508644E0
1.466507721E0,-7.657032460E-2,3.493520916E-1,9.686145782E0
1.468632929E0,-1.674975902E-1,4.259224236E-1,9.963713646E0
1.470758190E0,-4.019941986E-1,3.445664644E-1,1.050449181E1
1.472883346E0,-2.871387303E-1,1.148554832E-1,1.059063339E1
1.475008554E0,-2.201396823E-1,1.339980662E-1,1.007378292E1
1.477133763E0,6.221338734E-2,2.392822690E-2,9.690931320E0
1.479258971E0,1.196411327E-1,-5.264209956E-2,9.600004196E0
1.481384179E0,-4.785645287E-3,4.211367965E-1,9.753145218E0
1.483509388E0,5.742774159E-2,8.566305041E-1,1.003071213E1
1.485634596E0,1.004985496E-1,8.279166222E-1,1.023170948E1
1.487759804E0,1.004985496E-1,6.269195080E-1,1.011206818E1
1.489885013E0,3.014956415E-1,5.694918036E-1,9.786644936E0
1.492010221E0,3.972085714E-1,5.120640397E-1,9.580862045E0
1.494135429E0,1.627119333E-1,4.307080805E-1,9.748359680E0
1.496260638E0,-1.770688742E-1,4.785645306E-1,9.934999466E0
1.498385846E0,-5.551348329E-1,4.450650215E-1,9.982855797E0
1.500511054E0,-4.450650215E-1,4.307080805E-2,1.010728264E1
1.502636263E0,-1.531406492E-1,4.785645287E-3,1.009292603E1
1.504761471E0,-9.571290575E-3,-4.307080805E-2,9.844072342E0
1.506886679E0,1.292124242E-1,4.785645287E-3,9.858428955E0
1.509011888E0,-3.349951655E-2,9.092725813E-2,9.944570541E0
1.511137096E0,-1.387837082E-1,3.014956415E-1,1.000678444E1
1.513262304E0,-1.292124242E-1,6.508477330E-1,9.973284721E0
1.515387513E0,-1.914258115E-2,8.566305041E-1,1.001635551E1
1.517512721E0,1.866401732E-1,7.657032609E-1,9.958928108E0
1.519637929E0,1.435693651E-1,8.662018180E-1,9.824930191E0
1.521763086E0,-9.571290575E-3,7.896314859E-1,9.829715729E0
1.523888346E0,-2.727817893E-1,6.604190469E-1,1.001156998E1
1.526013554E0,-3.206382394E-1,4.642075896E-1,1.010249710E1
1.528138763E0,-3.254238665E-1,2.679961324E-1,1.010249710E1
1.530263971E0,-2.297109663E-1,7.657032460E-2,1.026042366E1
1.532389179E0,-1.004985496E-1,-1.435693540E-2,1.034177971E1
1.534514388E0,-1.770688742E-1,8.135596663E-2,1.021256733E1
1.536639596E0,-2.488535494E-1,0.000000000E0,1.013599682E1
1.538764804E0,-3.110669553E-1,-6.699903309E-2,1.004506969E1
1.540890013E0,-3.828516230E-2,7.178468257E-2,9.968499184E0
1.543015221E0,1.866401732E-1,3.254238665E-1,9.810572624E0
1.545140429E0,2.009970993E-1,6.747759581E-1,9.896714211E0
1.547265638E0,8.135596663E-2,6.604190469E-1,9.997213364E0
1.549390846E0,-3.828516230E-2,8.709874153E-1,9.638289452E0
1.551516054E0,-2.201396823E-1,7.513462901E-1,9.518648148E0
1.553641263E0,-2.344966233E-1,6.412764788E-1,9.389435768E0
1.555766471E0,-2.440679073E-1,5.503492355E-1,9.523433685E0
1.557891679E0,-1.531406492E-1,4.594219327E-1,9.671789169E0
1.560016888E0,-2.584248483E-1,4.163511395E-1,1.001635551E1
1.562142096E0,-3.302095234E-1,3.972085714E-1,1.021735287E1
1.564267304E0,-3.493520916E-1,2.297109663E-1,1.022213840E1
1.566392513E0,-2.679961324E-1,3.828516230E-2,9.915857315E0
1.568517721E0,-7.178468257E-2,-2.057827413E-1,9.609575272E0
1.570642929E0,-4.785645287E-3,7.178468257E-2,9.437292099E0
1.572768138E0,5.264209956E-2,4.402793646E-1,9.643074989E0
1.574893346E0,-1.483550072E-1,6.795616150E-1,1.006899738E1
1.577018554E0,-1.435693651E-1,6.939185858E-1,1.021256733E1
1.579143763E0,-2.057827413E-1,6.364908218E-1,9.997213364E0
1.581268971E0,-8.135596663E-2,4.833501875E-1,9.652647018E0
1.583394179E0,7.178468257E-2,4.402793646E-1,9.576076508E0
1.585519388E0,-2.871387079E-2,4.019941986E-1,9.676574707E0
1.587644596E0,-2.584248483E-1,3.637090325E-1,9.954142570E0
1.589769804E0,-3.924229145E-1,4.689932466E-1,1.033220863E1
1.591895013E0,-4.689932466E-1,2.536391914E-1,1.040399265E1
1.594020221E0,-2.057827413E-1,1.435693540E-2,9.848857880E0
1.596145429E0,-7.178468257E-2,-4.785645287E-3,9.504291534E0
1.598270638E0,1.004985496E-1,-1.292124242E-1,9.427721024E0
1.600395846E0,1.004985496E-1,3.780659735E-1,9.585647583E0
1.602521054E0,1.579262912E-1,7.752745152E-1,9.930213928E0
1.604646263E0,-6.699903309E-2,6.891329288E-1,1.029870892E1
1.606771471E0,1.627119333E-1,5.838487148E-1,1.005464077E1
1.608896679E0,3.732803464E-1,4.163511395E-1,9.595218658E0
1.611021888E0,3.158525825E-1,3.541377485E-1,9.351150513E0
1.613147096E0,2.632105052E-1,5.312066078E-1,9.628718376E0
1.615272304E0,-4.785645287E-3,5.742774606E-1,9.982855797E0
1.617397513E0,-2.584248483E-1,2.775674164E-1,1.025563812E1
1.619522721E0,-3.206382394E-1,4.307080805E-1,1.021256733E1
1.621647929E0,-1.435693651E-1,4.785645287E-3,1.013121128E1
1.623773138E0,0.000000000E0,1.483550072E-1,9.657432556E0
1.625898346E0,1.387837082E-1,2.392822653E-1,9.743574142E0
1.628023554E0,1.435693540E-2,6.699903309E-2,1.009292603E1
1.630148763E0,-1.196411327E-1,4.402793646E-1,1.014556789E1
1.632273971E0,-9.092725813E-2,6.269195080E-1,1.035135078E1
1.634399179E0,-7.657032460E-2,5.120640397E-1,1.023170948E1
1.636524388E0,6.221338734E-2,3.876372576E-1,9.992427826E0
1.638649596E0,2.584248483E-1,5.694918036E-1,9.724431038E0
1.640774752E0,1.435693540E-2,6.604190469E-1,9.777072906E0
1.642899961E0,-2.871387303E-1,6.652047038E-1,9.973284721E0
1.645025221E0,-6.125625968E-1,4.642075896E-1,1.033699417E1
1.647150429E0,-6.460621357E-1,3.349951804E-1,1.033220863E1
1.649275586E0,-3.684946895E-1,1.579262912E-1,1.028913784E1
1.651400846E0,-3.541377485E-1,1.339980662E-1,1.017428207E1
1.653526054E0,-2.249253243E-1,-5.264209956E-2,1.008335495E1
1.655651211E0,-2.775674164E-1,-4.785645381E-2,1.010728264E1
1.657776471E0,-1.244267747E-1,-5.742774159E-2,1.023649502E1
1.659901627E0,4.785645287E-3,1.244267747E-1,1.015513897E1
1.662026836E0,9.092725813E-2,4.977070987E-1,9.925428391E0
1.664152044E0,2.632105052E-1,5.359922647E-1,9.925428391E0
1.666277252E0,2.201396823E-1,5.312066078E-1,9.844072342E0
1.668402461E0,1.914258115E-2,5.982056856E-1,9.695717812E0
1.670527669E0,-2.153540403E-1,5.503492355E-1,9.681360245E0
1.672652877E0,-1.962114573E-1,3.828516304E-1,9.671789169E0
1.674778086E0,-2.440679073E-1,1.866401732E-1,9.595218658E0
1.676903294E0,-1.674975902E-1,1.866401732E-1,9.614361763E0
1.679028502E0,-1.292124242E-1,2.536391914E-1,1.001635551E1
1.681153711E0,-1.339980662E-1,2.297109663E-1,1.033699417E1
1.683278919E0,-1.674975902E-1,2.632105052E-1,1.027956581E1
1.685404127E0,-2.153540403E-1,-4.785645381E-2,1.018863869E1
1.687529336E0,-1.914258115E-2,-2.775674164E-1,1.004028416E1
1.689654544E0,9.571290761E-2,5.264209956E-2,9.844072342E0
1.691779752E0,8.614161611E-2,2.249253243E-1,9.930213928E0
1.693904961E0,-9.092725813E-2,4.689932466E-1,1.021256733E1
1.696030169E0,-1.962114573E-1,5.216353536E-1,1.027956581E1
1.698155377E0,-2.297109663E-1,4.785645306E-1,1.017428207E1
1.700280586E0,-1.483550072E-1,4.115654826E-1,1.003071213E1
1.702405794E0,-1.100698411E-1,3.876372576E-1,9.882357597E0
1.704531002E0,-3.589234054E-1,2.105683982E-1,1.004985523E1
1.706656211E0,-3.445664644E-1,3.062812984E-1,1.026520920E1
1.708781419E0,-4.785645306E-1,3.014956415E-1,1.057627583E1
1.710906627E0,-5.503492355E-1,-9.092725813E-2,1.047099209E1
1.713031836E0,-2.153540403E-1,-7.178468257E-2,1.008335495E1
1.715157044E0,1.531406492E-1,-2.823530734E-1,9.757930756E0
1.717282252E0,1.531406492E-1,-1.770688742E-1,9.590433121E0
1.719407461E0,2.249253243E-1,4.977070987E-1,9.686145782E0
1.721532669E0,4.785645287E-3,8.566305041E-1,1.015513897E1
1.723657877E0,-4.307080805E-2,7.704889178E-1,1.033699417E1
1.725783086E0,-2.871387079E-2,7.034898400E-1,1.019820976E1
1.727908294E0,2.057827413E-1,5.838487148E-1,9.690931320E0
1.730033502E0,2.153540403E-1,5.072783828E-1,9.542576790E0
1.732158711E0,2.679961324E-1,6.508477330E-1,9.729216576E0
1.734283867E0,-2.392822653E-1,6.604190469E-1,1.022692394E1
1.736409127E0,-4.354937077E-1,5.024927258E-1,1.048534870E1
1.738534336E0,-4.211367965E-1,3.732803464E-1,1.066720295E1
1.740659544E0,-2.153540403E-1,2.871387079E-2,1.051406288E1
1.742784752E0,-9.571290575E-3,-2.057827413E-1,1.009771156E1
1.744909961E0,8.135596663E-2,-2.105683982E-1,9.891928673E0
1.747035169E0,1.004985496E-1,-1.292124242E-1,9.992427826E0
1.749160377E0,-9.571290575E-3,3.589234054E-1,1.013599682E1
1.751285586E0,-1.483550072E-1,6.747759581E-1,1.023170948E1
1.753410794E0,-1.674975902E-1,6.412764788E-1,1.026520920E1
1.755536002E0,1.435693540E-2,6.077769399E-1,9.973284721E0
1.757661211E0,1.387837082E-1,7.609176040E-1,9.724431038E0
1.759786419E0,2.392822690E-2,7.752745152E-1,9.891928673E0
1.761911627E0,-2.536391914E-1,7.226324677E-1,1.015035343E1
1.764036836E0,-5.312066078E-1,6.173482537E-1,1.035135078E1
1.766162044E0,-6.891329288E-1,4.163511395E-1,1.048056316E1
1.768287252E0,-4.977070987E-1,1.435693651E-1,1.045184898E1
1.770412461E0,-2.871387303E-1,-5.742774159E-2,1.026520920E1
1.772537669E0,-1.148554832E-1,-1.435693651E-1,1.010728264E1
1.774662877E0,-1.292124242E-1,-2.105683982E-1,1.032263660E1
1.776788086E0,-1.770688742E-1,-6.221338734E-2,1.028913784E1
1.778913294E0,-8.614161611E-2,1.579262912E-1,1.004028416E1
1.781038502E0,-2.871387079E-2,4.019941986E-1,9.810572624E0
1.783163711E0,9.571290575E-3,4.259224236E-1,9.619147301E0
1.785288919E0,1.292124242E-1,5.407779217E-1,9.643074989E0
1.787414127E0,1.292124242E-1,6.317051649E-1,9.647860527E0
1.789539336E0,-6.699903309E-2,7.274180651E-1,9.738788605E0
1.791664544E0,-2.297109663E-1,6.699903607E-1,9.863214493E0
1.793789752E0,-3.780659735E-1,4.594219327E-1,9.858428955E0
1.795914961E0,-3.158525825E-1,4.067798555E-1,9.839286804E0
1.798040169E0,-2.201396823E-1,4.450650215E-1,1.011206818E1
1.800165377E0,-2.967100143E-1,2.440679073E-1,1.020299530E1
1.802290586E0,-2.392822653E-1,2.679961324E-1,1.020778179E1
1.804415794E0,-2.297109663E-1,7.657032460E-2,1.015513897E1
1.806541002E0,-1.339980662E-1,-1.100698411E-1,9.891928673E0
1.808666211E0,0.000000000E0,2.919243574E-1,9.705288887E0
1.810791419E0,-1.435693540E-2,4.354937077E-1,9.805787086E0
1.812916627E0,-1.531406492E-1,5.072783828E-1,1.001635551E1
1.815041836E0,-1.914258152E-1,6.508477330E-1,1.006421185E1
1.817167044E0,-3.780659735E-1,6.987041831E-1,9.896714211E0
1.819292252E0,-4.259224236E-1,6.125625968E-1,9.791430473E0
1.821417461E0,-1.770688742E-1,4.211367965E-1,9.724431038E0
1.823542669E0,-3.732803464E-1,3.732803464E-1,9.724431038E0
1.825667877E0,-2.919243574E-1,4.115654826E-1,1.004506969E1
1.827793086E0,-2.871387303E-1,3.637090325E-1,1.043749237E1
1.829918294E0,-2.727817893E-1,2.009970993E-1,1.032742214E1
1.832043502E0,-2.536391914E-1,1.818545163E-1,9.968499184E0
1.834168711E0,2.871387079E-2,-1.770688742E-1,9.791430473E0
1.836293919E0,1.770688742E-1,-1.100698411E-1,9.724431038E0
1.838419127E0,2.823530734E-1,3.589234054E-1,9.652647018E0
1.840544336E0,7.657032460E-2,6.317051649E-1,9.934999466E0
1.842669544E0,-1.962114573E-1,6.173482537E-1,9.877572060E0
1.844794752E0,-1.722832322E-1,6.795616150E-1,9.643074989E0
1.846919961E0,-4.307080805E-2,5.886343718E-1,9.399007797E0
1.849045169E0,8.135596663E-2,4.689932466E-1,9.442078590E0
1.851170377E0,8.135596663E-2,4.642075896E-1,9.408578873E0
1.853295586E0,-1.962114573E-1,4.402793646E-1,9.734002113E0
1.855420794E0,-4.307080805E-1,3.876372576E-1,9.968499184E0
1.857546002E0,-4.785645306E-1,3.206382394E-1,1.023170948E1
1.859671211E0,-3.158525825E-1,1.196411327E-1,1.020299530E1
1.861796419E0,-1.148554832E-1,1.435693540E-2,1.000199890E1
1.863921627E0,5.264209956E-2,-7.657032460E-2,9.791430473E0
1.866046836E0,7.178468257E-2,1.531406492E-1,9.853643417E0
1.868172044E0,0.000000000E0,4.737788737E-1,9.944570541E0
1.870297252E0,-1.674975902E-1,5.982056856E-1,1.009292603E1
1.872422461E0,-1.962114573E-1,4.450650215E-1,9.954142570E0
1.874547669E0,-1.387837082E-1,3.302095234E-1,9.652647018E0
1.876672877E0,-9.571290575E-3,4.115654826E-1,9.470791817E0
1.878798086E0,6.221338734E-2,5.455635786E-1,9.667003632E0
1.880923294E0,-1.627119333E-1,5.694918036E-1,1.008335495E1
1.883048502E0,-5.790630579E-1,6.604190469E-1,1.024606609E1
1.885173711E0,-6.412764788E-1,5.455635786E-1,1.031306553E1
1.887298919E0,-4.737788737E-1,2.392822653E-1,1.015513897E1
1.889424127E0,-1.722832322E-1,0.000000000E0,9.906285286E0
1.891549336E0,-8.135596663E-2,-1.579262912E-1,9.824930191E0
1.893674544E0,-9.571290761E-2,-2.919243574E-1,9.777072906E0
1.895799752E0,-1.339980662E-1,9.571290575E-3,9.982855797E0
1.897924961E0,-1.052841991E-1,3.732803464E-1,9.906285286E0
1.900050169E0,-1.579262912E-1,5.024927258E-1,9.872786522E0
1.902175377E0,5.742774159E-2,5.599204898E-1,9.571290970E0
1.904300586E0,2.392822653E-1,5.886343718E-1,9.394221306E0
1.906425794E0,1.674975902E-1,6.221339107E-1,9.379864693E0
1.908551002E0,-1.483550072E-1,7.752745152E-1,9.662218094E0
1.910676211E0,-4.115654826E-1,6.460621357E-1,9.901499748E0
1.912801419E0,-6.364908218E-1,3.972085714E-1,9.820143700E0
1.914926627E0,-5.216353536E-1,3.589234054E-1,9.662218094E0
1.917051836E0,-3.493520916E-1,3.302095234E-1,9.757930756E0
1.919177044E0,-1.962114573E-1,2.536391914E-1,9.844072342E0
1.921302252E0,-2.679961324E-1,2.153540403E-1,1.001635551E1
1.923427461E0,-2.679961324E-1,5.264209956E-2,1.017906761E1
1.925552669E0,-3.349951804E-1,-1.196411327E-1,1.007856941E1
1.927677877E0,-2.009970993E-1,8.614161611E-2,9.824930191E0
1.929803086E0,-1.292124242E-1,1.818545163E-1,9.839286804E0
1.931928294E0,-2.057827413E-1,2.679961324E-1,9.872786522E0
1.934053502E0,-1.387837082E-1,5.647061467E-1,9.978070259E0
1.936178711E0,-2.488535494E-1,6.843472719E-1,1.000678444E1
1.938303919E0,-3.780659735E-1,6.508477330E-1,1.001156998E1
1.940429127E0,-3.206382394E-1,4.929214716E-1,9.839286804E0
1.942554336E0,-4.307080805E-1,3.110669553E-1,9.753145218E0
1.944679544E0,-2.919243574E-1,2.297109663E-1,9.901499748E0
1.946804752E0,-1.962114573E-1,1.722832322E-1,1.030827999E1
1.948929961E0,-2.105683982E-1,5.264209956E-2,1.034656525E1
1.951055169E0,-1.914258152E-1,-2.392822690E-2,1.015992451E1
1.953180377E0,-4.307080805E-2,-1.292124242E-1,1.005942631E1
1.955305586E0,1.483550072E-1,1.435693540E-2,9.786644936E0
1.957430794E0,3.349951804E-1,3.924229145E-1,9.647860527E0
1.959556002E0,2.775674164E-1,7.082754970E-1,9.705288887E0
1.961681211E0,4.785645287E-3,7.944171429E-1,9.848857880E0
1.963806419E0,-6.221338734E-2,7.082754970E-1,9.872786522E0
1.965931627E0,-2.871387079E-2,5.599204898E-1,9.729216576E0
1.968056836E0,-5.742774159E-2,3.684946895E-1,9.638289452E0
1.970182044E0,5.742774159E-2,2.488535494E-1,9.619147301E0
1.972307252E0,-1.579262912E-1,3.254238665E-1,9.781859398E0
1.974432461E0,-2.201396823E-1,3.924229145E-1,1.022213840E1
1.976557669E0,-3.397808075E-1,3.876372576E-1,1.060499001E1
1.978682877E0,-2.967100143E-1,2.775674164E-1,1.051884842E1
1.980808086E0,-1.100698411E-1,7.657032460E-2,1.027956581E1
1.982933294E0,-1.435693540E-2,-1.004985496E-1,9.973284721E0
1.985058502E0,9.571290575E-3,1.004985496E-1,9.877572060E0
1.987183711E0,-2.871387079E-2,5.264210105E-1,9.968499184E0
1.989308919E0,-2.536391914E-1,7.896314859E-1,1.021256733E1
1.991434127E0,-2.679961324E-1,7.417750359E-1,1.022213840E1
1.993559336E0,-1.866401732E-1,7.130611539E-1,1.005942631E1
1.995684544E0,2.392822690E-2,6.221339107E-1,9.815358162E0
1.997809752E0,9.092725813E-2,6.508477330E-1,9.805787086E0
1.999934961E0,-1.914258115E-2,5.455635786E-1,1.006421185E1
2.002060169E0,-4.259224236E-1,4.737788737E-1,1.039442158E1
2.004185377E0,-5.120640397E-1,4.594219327E-1,1.058584690E1
2.006310586E0,-3.637090325E-1,1.722832322E-1,1.066720295E1
2.008435794E0,-1.004985496E-1,-3.349951655E-2,1.037049294E1
2.010561002E0,-2.392822690E-2,-1.244267747E-1,1.009292603E1
2.012686211E0,-4.785645287E-3,-1.292124242E-1,9.891928673E0
2.014811419E0,-7.178468257E-2,2.201396823E-1,9.844072342E0
2.016936627E0,-1.866401732E-1,6.077769399E-1,9.820143700E0
2.019061836E0,-3.349951804E-1,7.226324677E-1,9.896714211E0
2.021187044E0,3.349951655E-2,6.221339107E-1,9.690931320E0
2.023312252E0,2.009970993E-1,5.694918036E-1,9.485149384E0
2.025437461E0,2.392822653E-1,5.838487148E-1,9.446864128E0
2.027562669E0,-1.914258115E-2,8.374879360E-1,9.690931320E0
2.029687877E0,-3.349951804E-1,7.561319470E-1,9.982855797E0
2.031813086E0,-6.556333899E-1,5.407779217E-1,1.006899738E1
2.033938294E0,-6.173482537E-1,4.594219327E-1,9.891928673E0
2.036063502E0,-4.354937077E-1,3.254238665E-1,9.853643417E0
2.038188711E0,-3.254238665E-1,1.196411327E-1,9.714859962E0
2.040313919E0,-2.536391914E-1,9.092725813E-2,9.643074989E0
2.042439127E0,-3.589234054E-1,9.571290761E-2,9.934999466E0
2.044564336E0,-3.637090325E-1,9.571290761E-2,1.005464077E1
2.046689544E0,-2.105683982E-1,4.546363056E-1,9.968499184E0
2.048814752E0,-2.871387079E-2,5.407779217E-1,9.987641335E0
2.050939961E0,0.000000000E0,5.790630579E-1,9.978070259E0
2.053065169E0,7.657032460E-2,6.317051649E-1,9.824930191E0
2.055190377E0,-2.392822690E-2,6.508477330E-1,9.753145218E0
2.057315586E0,-2.727817893E-1,6.364908218E-1,9.710074425E0
2.059440794E0,-3.589234054E-1,3.780659735E-1,9.777072906E0
2.061566002E0,-4.163511395E-1,3.445664644E-1,9.777072906E0
2.063691211E0,-3.254238665E-1,2.632105052E-1,9.978070259E0
2.065816419E0,-1.579262912E-1,2.727817893E-1,1.009292603E1
2.067941627E0,-2.057827413E-1,2.057827413E-1,1.010249710E1
2.070066836E0,-2.536391914E-1,1.914258152E-1,9.772287369E0
2.072191992E0,-8.614161611E-2,6.699903309E-2,9.547362328E0
2.074317252E0,1.483550072E-1,1.674975902E-1,9.322437286E0
2.076442461E0,3.349951804E-1,5.407779217E-1,9.279366493E0
2.078567669E0,4.163511395E-1,7.752745152E-1,9.523433685E0
2.080692877E0,2.967100143E-1,8.566305041E-1,9.743574142E0
2.082818086E0,9.571290761E-2,8.901300430E-1,9.777072906E0
2.084943294E0,-6.221338734E-2,7.513462901E-1,9.585647583E0
2.087068502E0,-1.579262912E-1,5.982056856E-1,9.346364975E0
2.089193711E0,-9.092725813E-2,5.120640397E-1,9.202795982E0
2.091318919E0,-2.249253243E-1,5.694918036E-1,9.351150513E0
2.093444127E0,-2.919243574E-1,5.886343718E-1,9.667003632E0
2.095569336E0,-4.211367965E-1,5.742774606E-1,1.013121128E1
2.097694544E0,-4.689932466E-1,3.445664644E-1,1.013121128E1
2.099819752E0,-3.254238665E-1,1.674975902E-1,9.901499748E0
2.101944961E0,-1.244267747E-1,-2.392822690E-2,9.762716293E0
2.104070169E0,-2.392822690E-2,8.135596663E-2,9.671789169E0
2.106195325E0,1.914258115E-2,5.072783828E-1,9.734002113E0
2.108320586E0,-1.531406492E-1,8.039883971E-1,9.997213364E0
2.110445794E0,-2.871387303E-1,7.465606928E-1,9.982855797E0
2.112571002E0,-3.014956415E-1,7.082754970E-1,9.724431038E0
2.114696211E0,-2.201396823E-1,5.359922647E-1,9.422935486E0
2.116821419E0,-8.614161611E-2,5.503492355E-1,9.360722542E0
2.118946627E0,-1.914258152E-1,5.024927258E-1,9.695717812E0
2.121071836E0,-4.498506486E-1,5.264210105E-1,9.978070259E0
2.123197044E0,-4.737788737E-1,4.977070987E-1,1.028435135E1
2.125322252E0,-4.067798555E-1,3.014956415E-1,1.039920712E1
2.127447461E0,-2.105683982E-1,6.221338734E-2,1.005942631E1
2.129572669E0,-9.571290575E-3,-1.148554832E-1,9.633503914E0
2.131697877E0,6.699903309E-2,-1.339980662E-1,9.513862610E0
2.133823086E0,2.871387079E-2,2.057827413E-1,9.600004196E0
2.135948294E0,-8.135596663E-2,6.221339107E-1,9.647860527E0
2.138073502E0,-1.100698411E-1,7.369893789E-1,9.676574707E0
2.140198711E0,4.307080805E-2,5.742774606E-1,9.509077072E0
2.142323919E0,1.818545163E-1,4.737788737E-1,9.087940216E0
2.144449127E0,2.057827413E-1,4.498506486E-1,8.963513374E0
2.146574336E0,1.292124242E-1,6.077769399E-1,9.116654396E0
2.148699544E0,-2.488535494E-1,6.269195080E-1,9.427721024E0
2.150824752E0,-5.934200287E-1,6.364908218E-1,9.533005714E0
2.152949961E0,-5.647061467E-1,6.077769399E-1,9.628718376E0
2.155075169E0,-3.206382394E-1,5.120640397E-1,9.695717812E0
2.157200377E0,-1.962114573E-1,4.737788737E-1,9.595218658E0
2.159325586E0,-1.627119333E-1,4.067798555E-1,9.609575272E0
2.161450794E0,-2.344966233E-1,2.871387303E-1,9.810572624E0
2.163576002E0,-4.067798555E-1,2.871387303E-1,9.839286804E0
2.165701211E0,-3.349951804E-1,4.546363056E-1,9.676574707E0
2.167826367E0,-2.105683982E-1,5.168496966E-1,9.609575272E0
2.169951627E0,-4.785645287E-3,5.407779217E-1,9.595218658E0
2.172076888E0,1.244267747E-1,5.551348329E-1,9.662218094E0
2.174202044E0,9.092725813E-2,6.604190469E-1,9.762716293E0
2.176327252E0,-2.679961324E-1,6.029912829E-1,9.963713646E0
2.178452461E0,-3.302095234E-1,4.019941986E-1,9.901499748E0
2.180577669E0,-4.354937077E-1,2.967100143E-1,9.777072906E0
2.182702877E0,-2.919243574E-1,2.201396823E-1,9.705288887E0
2.184828138E0,-1.770688742E-1,2.440679073E-1,9.872786522E0
2.186953398E0,-8.135596663E-2,2.823530734E-1,9.901499748E0
2.189078502E0,-1.387837082E-1,3.637090325E-1,9.853643417E0
2.191203711E0,-1.004985496E-1,1.148554832E-1,9.643074989E0
2.193328971E0,1.339980662E-1,3.349951804E-1,9.399007797E0
2.195454179E0,3.732803464E-1,5.168496966E-1,9.370293617E0
2.197579388E0,4.546363056E-1,6.269195080E-1,9.623932838E0
2.199704596E0,3.876372576E-1,6.891329288E-1,9.911071777E0
2.201829804E0,2.249253243E-1,6.604190469E-1,9.963713646E0
2.203955013E0,1.435693540E-2,4.881358147E-1,9.753145218E0
2.206080221E0,-1.435693540E-2,3.349951804E-1,9.432506561E0
2.208205429E0,-3.349951655E-2,1.196411327E-1,9.403793335E0
2.210330638E0,-1.339980662E-1,1.818545163E-1,9.461220741E0
2.212455846E0,-1.674975902E-1,3.014956415E-1,9.872786522E0
2.214581054E0,-1.674975902E-1,3.493520916E-1,1.031306553E1
2.216706263E0,-3.110669553E-1,2.967100143E-1,1.042313576E1
2.218831471E0,-2.679961324E-1,1.579262912E-1,1.011685371E1
2.220956679E0,-1.148554832E-1,-1.770688742E-1,9.901499748E0
2.223081888E0,9.571290575E-3,5.264209956E-2,9.829715729E0
2.225207096E0,3.349951655E-2,5.216353536E-1,1.000678444E1
2.227332304E0,-7.657032460E-2,7.704889178E-1,1.042313576E1
2.229457513E0,-2.488535494E-1,7.130611539E-1,1.064327526E1
2.231582721E0,-2.344966233E-1,6.077769399E-1,1.029392338E1
2.233707929E0,-2.153540403E-1,3.302095234E-1,9.978070259E0
2.235833138E0,-9.571290575E-3,3.110669553E-1,9.786644936E0
2.237958346E0,-9.092725813E-2,1.866401732E-1,9.982855797E0
2.240083554E0,-3.302095234E-1,1.770688742E-1,1.027956581E1
2.242208763E0,-4.259224236E-1,3.014956415E-1,1.061456108E1
2.244333971E0,-3.254238665E-1,1.579262912E-1,1.062891865E1
2.246459179E0,-1.674975902E-1,3.349951655E-2,1.036570740E1
2.248584388E0,3.349951655E-2,-6.699903309E-2,1.007856941E1
2.250709596E0,1.770688742E-1,-1.244267747E-1,1.007378292E1
2.252834804E0,2.201396823E-1,3.014956415E-1,1.016471100E1
2.254960013E0,4.785645287E-3,6.556333899E-1,1.022213840E1
2.257085221E0,-3.828516230E-2,7.609176040E-1,1.008335495E1
2.259210429E0,-9.571290761E-2,5.982056856E-1,9.944570541E0
2.261335638E0,2.392822690E-2,5.455635786E-1,9.595218658E0
2.263460846E0,1.052841991E-1,4.642075896E-1,9.442078590E0
2.265586054E0,3.349951655E-2,5.982056856E-1,9.537791252E0
2.267711263E0,-2.201396823E-1,5.934200287E-1,9.911071777E0
2.269836471E0,-6.747759581E-1,4.307080805E-1,1.009771156E1
2.271961679E0,-5.264210105E-1,3.254238665E-1,1.011206818E1
2.274086888E0,-3.349951804E-1,1.292124242E-1,1.012164021E1
2.276212096E0,-1.292124242E-1,-3.349951655E-2,9.925428391E0
2.278337304E0,-1.818545163E-1,-2.392822690E-2,1.009292603E1
2.280462513E0,-6.221338734E-2,-1.914258115E-2,1.036092186E1
2.282587721E0,-3.349951804E-1,2.392822653E-1,1.048056316E1
2.284712929E0,-4.689932466E-1,4.977070987E-1,1.041835022E1
2.286838138E0,-4.307080805E-1,5.168496966E-1,1.027956581E1
2.288963346E0,-3.206382394E-1,3.493520916E-1,1.036570740E1
2.291088554E0,-1.483550072E-1,2.775674164E-1,1.027478027E1
2.293213763E0,-1.962114573E-1,2.967100143E-1,1.022692394E1
2.295338971E0,-3.062812984E-1,3.493520916E-1,1.016471100E1
2.297464179E0,-6.077769399E-1,1.914258115E-2,1.022692394E1
2.299589388E0,-5.503492355E-1,7.178468257E-2,1.019820976E1
2.301714596E0,-3.014956415E-1,-4.785645381E-2,1.042313576E1
2.303839804E0,-7.657032460E-2,-5.742774159E-2,1.055713367E1
2.305965013E0,4.785645287E-3,-4.307080805E-2,1.037049294E1
2.308090221E0,-1.196411327E-1,8.614161611E-2,1.020778179E1
2.310215429E0,-1.770688742E-1,-8.614161611E-2,1.021256733E1
2.312340638E0,6.699903309E-2,1.914258152E-1,1.006899738E1
2.314465846E0,2.297109663E-1,2.823530734E-1,9.982855797E0
2.316591054E0,4.115654826E-1,3.828516304E-1,1.004028416E1
2.318716315E0,3.014956415E-1,5.072783828E-1,1.027956581E1
2.320841471E0,1.244267747E-1,5.359922647E-1,1.028435135E1
2.322966679E0,-1.435693651E-1,4.881358147E-1,1.031785107E1
2.325091940E0,-1.627119333E-1,3.206382394E-1,1.022692394E1
2.327217096E0,-1.435693651E-1,5.264209956E-2,1.014556789E1
2.329342356E0,-2.201396823E-1,-2.871387079E-2,1.004506969E1
2.331467565E0,-1.914258152E-1,2.871387079E-2,1.008335495E1
2.333592721E0,-2.775674164E-1,1.004985496E-1,1.043749237E1
2.335717981E0,-3.541377485E-1,2.153540403E-1,1.041835022E1
2.337843190E0,-3.062812984E-1,1.627119333E-1,1.038006496E1
2.339968398E0,-1.770688742E-1,-1.435693540E-2,1.020299530E1
2.342093554E0,-2.392822690E-2,3.014956415E-1,1.004028416E1
2.344218815E0,1.052841991E-1,6.508477330E-1,1.012164021E1
2.346344023E0,0.000000000E0,7.609176040E-1,1.043749237E1
2.348469231E0,-1.292124242E-1,6.652047038E-1,1.060020447E1
2.350594440E0,-1.483550072E-1,5.886343718E-1,1.044706345E1
2.352719648E0,-3.158525825E-1,2.919243574E-1,1.023170948E1
2.354844856E0,-1.100698411E-1,2.536391914E-1,9.954142570E0
2.356970065E0,-1.531406492E-1,1.770688742E-1,1.008335495E1
2.359095273E0,-3.541377485E-1,1.627119333E-1,1.033699417E1
2.361220481E0,-4.259224236E-1,2.727817893E-1,1.063370419E1
2.363345690E0,-4.402793646E-1,1.914258152E-1,1.071506023E1
2.365470898E0,-3.684946895E-1,-2.392822690E-2,1.043749237E1
2.367596106E0,-7.657032460E-2,-2.153540403E-1,1.003549862E1
2.369721315E0,1.100698411E-1,-1.770688742E-1,9.839286804E0
2.371846523E0,1.722832322E-1,1.052841991E-1,9.882357597E0
2.373971731E0,4.785645381E-2,6.077769399E-1,1.004028416E1
2.376096940E0,-2.297109663E-1,7.992027402E-1,1.027478027E1
2.378222148E0,-1.770688742E-1,6.173482537E-1,1.020299530E1
2.380347356E0,-6.221338734E-2,5.359922647E-1,9.882357597E0
2.382472565E0,-8.614161611E-2,3.876372576E-1,9.695717812E0
2.384597773E0,-1.100698411E-1,3.349951804E-1,9.714859962E0
2.386722981E0,-4.259224236E-1,1.962114573E-1,9.872786522E0
2.388848190E0,-6.843472719E-1,1.818545163E-1,9.987641335E0
2.390973398E0,-5.934200287E-1,1.148554832E-1,1.014078236E1
2.393098606E0,-3.972085714E-1,0.000000000E0,1.017906761E1
2.395223815E0,-8.135596663E-2,-1.004985496E-1,9.968499184E0
2.397349023E0,6.699903309E-2,-2.871387079E-2,9.987641335E0
2.399474231E0,-3.828516230E-2,4.785645287E-3,1.014078236E1
2.401599440E0,-2.632105052E-1,3.541377485E-1,1.007378292E1
2.403724648E0,-4.833501875E-1,4.689932466E-1,1.013121128E1
2.405849856E0,-4.307080805E-1,3.732803464E-1,1.026520920E1
2.407975065E0,-2.392822653E-1,2.823530734E-1,1.022692394E1
2.410100273E0,-1.292124242E-1,2.344966233E-1,1.005942631E1
2.412225481E0,-1.148554832E-1,3.062812984E-1,1.006421185E1
2.414350690E0,-2.440679073E-1,4.019941986E-1,1.012164021E1
2.416475898E0,-4.977070987E-1,1.339980662E-1,1.018385315E1
2.418601106E0,-6.125625968E-1,1.435693540E-2,1.013599682E1
2.420726315E0,-3.397808075E-1,-1.292124242E-1,1.008814049E1
2.422851523E0,-1.339980662E-1,-3.014956415E-1,9.987641335E0
2.424976731E0,4.307080805E-2,-2.153540403E-1,9.824930191E0
2.427101940E0,2.871387079E-2,4.307080805E-2,9.777072906E0
2.429227148E0,-8.135596663E-2,4.307080805E-2,9.710074425E0
2.431352356E0,6.699903309E-2,4.594219327E-1,9.528220177E0
2.433477565E0,2.153540403E-1,6.604190469E-1,9.633503914E0
2.435602773E0,2.967100143E-1,7.609176040E-1,9.719645500E0
2.437727981E0,3.206382394E-1,6.699903607E-1,9.915857315E0
2.439853190E0,1.914258152E-1,7.369893789E-1,9.920642853E0
2.441978450E0,-3.828516230E-2,5.264210105E-1,1.007856941E1
2.444103658E0,-1.435693651E-1,3.780659735E-1,1.000199890E1
2.446228815E0,-2.871387303E-1,1.435693540E-2,9.887143135E0
2.448354075E0,-1.722832322E-1,-5.264209956E-2,9.748359680E0
2.450479283E0,-1.866401732E-1,-3.349951655E-2,1.004028416E1
2.452604492E0,-2.536391914E-1,-6.699903309E-2,1.037049294E1
2.454729700E0,-1.627119333E-1,1.627119333E-1,1.011685371E1
2.456854908E0,-2.871387303E-1,2.871387079E-2,9.992427826E0
2.458980117E0,-2.057827413E-1,-4.785645381E-2,9.604789734E0
2.461105325E0,-9.571290761E-2,2.775674164E-1,9.489934921E0
2.463230533E0,7.657032460E-2,5.455635786E-1,9.676574707E0
2.465355742E0,-5.264209956E-2,7.752745152E-1,1.004506969E1
2.467480950E0,-2.392822653E-1,8.039883971E-1,1.015035343E1
2.469606158E0,-1.914258152E-1,8.279166222E-1,1.010728264E1
2.471731367E0,-2.488535494E-1,5.216353536E-1,1.002592659E1
2.473856575E0,-6.221338734E-2,3.876372576E-1,9.877572060E0
2.475981783E0,-1.531406492E-1,1.770688742E-1,1.011206818E1
2.478106992E0,-2.919243574E-1,3.828516230E-2,1.032263660E1
2.480232200E0,-4.450650215E-1,5.742774159E-2,1.059541893E1
2.482357408E0,-5.072783828E-1,-3.828516230E-2,1.053799057E1
2.484482617E0,-4.785645306E-1,-5.264209956E-2,1.014556789E1
2.486607825E0,-1.866401732E-1,-2.919243574E-1,9.767501831E0
2.488733033E0,1.052841991E-1,-1.962114573E-1,9.437292099E0
2.490858242E0,2.057827413E-1,1.292124242E-1,9.370293617E0
2.492983450E0,1.292124242E-1,5.455635786E-1,9.633503914E0
2.495108658E0,-9.571290761E-2,7.561319470E-1,9.954142570E0
2.497233867E0,-2.153540403E-1,5.551348329E-1,9.968499184E0
2.499359075E0,-1.770688742E-1,5.072783828E-1,9.686145782E0
2.501484283E0,-2.392822690E-2,3.541377485E-1,9.418149948E0
2.503609492E0,-5.742774159E-2,4.402793646E-1,9.542576790E0
2.505734700E0,-3.780659735E-1,3.062812984E-1,9.743574142E0
2.507859908E0,-6.891329288E-1,3.062812984E-1,9.901499748E0
2.509985117E0,-8.231309652E-1,3.206382394E-1,1.004985523E1
2.512110325E0,-5.790630579E-1,1.579262912E-1,9.978070259E0
2.514235533E0,-2.536391914E-1,-4.785645381E-2,9.710074425E0
2.516360742E0,-3.349951655E-2,-7.178468257E-2,9.403793335E0
2.518485950E0,-7.178468257E-2,-8.135596663E-2,9.399007797E0
2.520611158E0,-3.349951804E-1,3.828516304E-1,9.561718941E0
2.522736367E0,-4.211367965E-1,6.077769399E-1,9.863214493E0
2.524861575E0,-4.737788737E-1,7.226324677E-1,1.001635551E1
2.526986783E0,-2.057827413E-1,5.312066078E-1,9.839286804E0
2.529111992E0,-4.785645287E-3,5.647061467E-1,9.633503914E0
2.531237200E0,-8.614161611E-2,4.977070987E-1,9.676574707E0
2.533362408E0,-2.344966233E-1,5.120640397E-1,9.863214493E0
2.535487617E0,-7.513462901E-1,3.302095234E-1,9.987641335E0
2.537612877E0,-7.561319470E-1,1.244267747E-1,1.000199890E1
2.539738086E0,-6.029912829E-1,6.699903309E-2,1.009292603E1
2.541863294E0,-2.871387303E-1,-1.531406492E-1,9.958928108E0
2.543988502E0,-5.742774159E-2,-6.221338734E-2,9.700503349E0
2.546113711E0,-2.871387079E-2,1.244267747E-1,9.609575272E0
2.548238919E0,-8.135596663E-2,2.105683982E-1,9.614361763E0
2.550364127E0,-1.292124242E-1,5.216353536E-1,9.513862610E0
2.552489336E0,-9.571290575E-3,6.843472719E-1,9.399007797E0
2.554614544E0,7.657032460E-2,6.317051649E-1,9.389435768E0
2.556739752E0,2.823530734E-1,6.221339107E-1,9.571290970E0
2.558864961E0,1.818545163E-1,6.556333899E-1,9.710074425E0
2.560990169E0,9.571290575E-3,5.264210105E-1,9.786644936E0
2.563115377E0,-2.249253243E-1,3.924229145E-1,9.796216011E0
2.565240586E0,-4.354937077E-1,1.435693651E-1,9.676574707E0
2.567365794E0,-4.450650215E-1,9.571290575E-3,9.647860527E0
2.569491002E0,-2.775674164E-1,3.349951655E-2,9.834501266E0
2.571616211E0,-2.775674164E-1,-4.785645381E-2,1.018385315E1
2.573741419E0,-2.105683982E-1,1.004985496E-1,9.992427826E0
2.575866627E0,-4.259224236E-1,4.785645381E-2,9.801001549E0
2.577991836E0,-2.967100143E-1,-2.392822690E-2,9.470791817E0
2.580117044E0,-1.387837082E-1,3.062812984E-1,9.403793335E0
2.582242252E0,-1.914258115E-2,6.029912829E-1,9.494720459E0
2.584367461E0,-4.785645287E-3,6.795616150E-1,9.829715729E0
2.586492669E0,-4.785645381E-2,6.939185858E-1,1.000678444E1
2.588617877E0,-1.962114573E-1,7.034898400E-1,1.000199890E1
2.590743086E0,-4.450650215E-1,5.312066078E-1,9.839286804E0
2.592868294E0,-3.397808075E-1,3.014956415E-1,9.719645500E0
2.594993502E0,-4.689932466E-1,2.057827413E-1,9.738788605E0
2.597118711E0,-5.599204898E-1,1.914258152E-1,1.009292603E1
2.599243919E0,-6.269195080E-1,1.531406492E-1,1.045663452E1
2.601369127E0,-6.508477330E-1,1.531406492E-1,1.045663452E1
2.603494283E0,-6.891329288E-1,-4.307080805E-2,1.003071213E1
2.605619544E0,-5.359922647E-1,-3.062812984E-1,9.652647018E0
2.607744752E0,-2.775674164E-1,-1.866401732E-1,9.523433685E0
2.609869961E0,0.000000000E0,1.339980662E-1,9.537791252E0
2.611995221E0,-1.052841991E-1,6.699903607E-1,9.710074425E0
2.614120429E0,-2.488535494E-1,8.279166222E-1,9.944570541E0
2.616245638E0,-2.201396823E-1,8.135597110E-1,9.925428391E0
2.618370846E0,-9.571290761E-2,6.939185858E-1,9.633503914E0
2.620496054E0,-6.221338734E-2,5.359922647E-1,9.456435204E0
2.622621263E0,-2.392822690E-2,4.211367965E-1,9.418149948E0
2.624746471E0,-3.637090325E-1,4.402793646E-1,9.657432556E0
2.626871679E0,-6.317051649E-1,4.546363056E-1,9.968499184E0
2.628996888E0,-7.944171429E-1,4.689932466E-1,1.025563812E1
2.631122096E0,-7.369893789E-1,2.488535494E-1,1.022213840E1
2.633247304E0,-4.259224236E-1,9.571290761E-2,9.858428955E0
2.635372513E0,-1.579262912E-1,-6.221338734E-2,9.638289452E0
2.637497721E0,4.785645287E-3,-1.004985496E-1,9.552147865E0
2.639622929E0,-1.674975902E-1,3.158525825E-1,9.820143700E0
2.641748138E0,-3.589234054E-1,5.982056856E-1,1.008814049E1
2.643873346E0,-5.647061467E-1,6.508477330E-1,1.025085258E1
2.645998554E0,-3.254238665E-1,5.072783828E-1,1.005942631E1
2.648123763E0,-1.770688742E-1,4.977070987E-1,9.863214493E0
2.650248971E0,-2.297109663E-1,4.833501875E-1,9.810572624E0
2.652374179E0,-3.110669553E-1,4.689932466E-1,9.906285286E0
2.654499388E0,-6.795616150E-1,2.584248483E-1,9.992427826E0
2.656624596E0,-7.992027402E-1,1.627119333E-1,1.007378292E1
2.658749804E0,-6.125625968E-1,4.307080805E-2,1.015992451E1
2.660875013E0,-2.584248483E-1,-2.297109663E-1,1.005464077E1
2.663000221E0,-1.531406492E-1,-2.871387303E-1,9.710074425E0
2.665125429E0,1.004985496E-1,-5.264209956E-2,9.623932838E0
2.667250638E0,4.307080805E-2,1.292124242E-1,9.911071777E0
2.669375846E0,2.871387079E-2,5.934200287E-1,9.982855797E0
2.671501054E0,1.196411327E-1,7.992027402E-1,9.868000984E0
2.673626263E0,7.178468257E-2,7.082754970E-1,9.786644936E0
2.675751471E0,3.397808075E-1,6.987041831E-1,9.647860527E0
2.677876679E0,2.344966233E-1,6.747759581E-1,9.686145782E0
2.680001888E0,4.785645287E-3,5.503492355E-1,9.738788605E0
2.682127096E0,-2.775674164E-1,5.838487148E-1,9.858428955E0
2.684252356E0,-3.828516304E-1,2.105683982E-1,9.877572060E0
2.686377565E0,-4.402793646E-1,8.135596663E-2,9.896714211E0
2.688502721E0,-2.057827413E-1,1.435693651E-1,1.005464077E1
2.690627929E0,-9.571290761E-2,1.914258115E-2,1.042792130E1
2.692753190E0,-4.785645381E-2,2.057827413E-1,1.027478027E1
2.694878346E0,-1.770688742E-1,1.531406492E-1,1.024128056E1
2.697003606E0,-1.483550072E-1,1.674975902E-1,9.973284721E0
2.699128815E0,-9.571290761E-2,5.120640397E-1,9.882357597E0
2.701254023E0,-1.914258115E-2,9.044869542E-1,9.777072906E0
2.703379231E0,-5.742774159E-2,1.019342422E0,1.005942631E1
2.705504440E0,-2.632105052E-1,1.086341500E0,1.015513897E1
2.707629648E0,-3.637090325E-1,1.115055323E0,1.008814049E1
2.709754856E0,-4.785645306E-1,8.470591903E-1,9.949356079E0
2.711880065E0,-3.014956415E-1,5.407779217E-1,9.829715729E0
2.714005273E0,-3.876372576E-1,3.014956415E-1,9.891928673E0
2.716130481E0,-4.259224236E-1,2.057827413E-1,1.012164021E1
2.718255690E0,-3.924229145E-1,2.249253243E-1,1.059063339E1
2.720380898E0,-3.637090325E-1,1.962114573E-1,1.072463131E1
2.722506054E0,-4.977070987E-1,1.052841991E-1,1.051406288E1
2.724631315E0,-3.589234054E-1,-1.244267747E-1,9.982855797E0
2.726756523E0,9.571290575E-3,-5.742774159E-2,9.556933403E0
2.728881731E0,7.657032460E-2,1.818545163E-1,9.418149948E0
2.731006940E0,9.571290761E-2,5.599204898E-1,9.494720459E0
2.733132148E0,-3.349951655E-2,8.231309652E-1,9.724431038E0
2.735257356E0,-1.004985496E-1,7.226324677E-1,9.695717812E0
2.737382565E0,-1.818545163E-1,8.087740541E-1,9.518648148E0
2.739507773E0,-4.785645381E-2,5.790630579E-1,9.509077072E0
2.741632981E0,1.196411327E-1,4.307080805E-1,9.600004196E0
2.743758190E0,-6.221338734E-2,2.488535494E-1,9.781859398E0
2.745883398E0,-2.249253243E-1,2.297109663E-1,9.934999466E0
2.748008606E0,-3.732803464E-1,2.536391914E-1,1.019820976E1
2.750133815E0,-4.019941986E-1,1.292124242E-1,1.019342422E1
2.752259023E0,-3.445664644E-1,-1.770688742E-1,9.829715729E0
2.754384231E0,-2.344966233E-1,-2.153540403E-1,9.561718941E0
2.756509440E0,-2.057827413E-1,-1.627119333E-1,9.499505997E0
2.758634648E0,-2.823530734E-1,2.440679073E-1,9.705288887E0
2.760759856E0,-3.924229145E-1,5.455635786E-1,9.954142570E0
2.762885065E0,-5.886343718E-1,6.317051649E-1,1.009771156E1
2.765010325E0,-3.732803464E-1,5.503492355E-1,9.829715729E0
2.767135533E0,-2.679961324E-1,4.019941986E-1,9.600004196E0
2.769260742E0,-7.657032460E-2,3.732803464E-1,9.580862045E0
2.771385950E0,-2.249253243E-1,3.924229145E-1,9.820143700E0
2.773511158E0,-5.647061467E-1,3.206382394E-1,9.987641335E0
2.775636367E0,-7.896314859E-1,2.344966233E-1,1.023170948E1
2.777761575E0,-6.460621357E-1,8.614161611E-2,1.021735287E1
2.779886783E0,-5.838487148E-1,-5.742774159E-2,1.005942631E1
2.782011992E0,-2.727817893E-1,-1.818545163E-1,9.623932838E0
2.784137200E0,-9.571290761E-2,-8.614161611E-2,9.408578873E0
2.786262408E0,-1.866401732E-1,7.657032460E-2,9.408578873E0
2.788387617E0,-1.292124242E-1,4.594219327E-1,9.580862045E0
2.790512825E0,-7.178468257E-2,5.551348329E-1,9.681360245E0
2.792638033E0,1.100698411E-1,4.881358147E-1,9.724431038E0
2.794763242E0,2.967100143E-1,5.503492355E-1,9.662218094E0
2.796888450E0,3.206382394E-1,5.264210105E-1,9.657432556E0
2.799013658E0,1.435693651E-1,4.642075896E-1,9.853643417E0
2.801138867E0,-2.057827413E-1,3.637090325E-1,1.005464077E1
2.803264075E0,-4.833501875E-1,7.178468257E-2,9.963713646E0
2.805389283E0,-5.072783828E-1,-5.742774159E-2,9.858428955E0
2.807514492E0,-2.871387303E-1,-1.148554832E-1,9.872786522E0
2.809639700E0,-1.962114573E-1,-1.531406492E-1,9.920642853E0
2.811764908E0,-1.435693651E-1,0.000000000E0,9.949356079E0
2.813890117E0,-2.201396823E-1,6.221338734E-2,9.963713646E0
2.816015325E0,-3.302095234E-1,2.871387079E-2,9.997213364E0
2.818140533E0,-3.014956415E-1,2.727817893E-1,9.844072342E0
2.820265742E0,-1.531406492E-1,4.402793646E-1,9.753145218E0
2.822390950E0,-8.135596663E-2,4.689932466E-1,9.853643417E0
2.824516211E0,2.392822690E-2,5.264210105E-1,1.001156998E1
2.826641419E0,-5.264209956E-2,6.412764788E-1,1.004028416E1
2.828766575E0,-2.249253243E-1,5.982056856E-1,1.015992451E1
2.830891836E0,-4.307080805E-1,3.206382394E-1,1.022213840E1
2.833017044E0,-3.876372576E-1,9.092725813E-2,9.997213364E0
2.835142200E0,-4.307080805E-1,-6.699903309E-2,1.013121128E1
2.837267461E0,-2.632105052E-1,-4.785645381E-2,1.041356373E1
2.839392669E0,-3.158525825E-1,-1.914258152E-1,1.071506023E1
2.841517877E0,-3.541377485E-1,-1.627119333E-1,1.037527943E1
2.843643086E0,-3.780659735E-1,-3.349951804E-1,1.004985523E1
2.845768294E0,-1.818545163E-1,-3.397808075E-1,9.719645500E0
2.847893502E0,0.000000000E0,-5.742774159E-2,9.614361763E0
2.850018711E0,8.614161611E-2,3.302095234E-1,9.580862045E0
2.852143919E0,3.349951655E-2,5.599204898E-1,9.858428955E0
2.854269127E0,-1.435693651E-1,6.364908218E-1,9.944570541E0
2.856394336E0,-1.579262912E-1,6.747759581E-1,9.757930756E0
2.858519544E0,-2.153540403E-1,5.264210105E-1,9.504291534E0
2.860644752E0,-1.148554832E-1,3.349951804E-1,9.475577354E0
2.862769961E0,-2.632105052E-1,2.392822653E-1,9.619147301E0
2.864895169E0,-2.967100143E-1,2.201396823E-1,9.925428391E0
2.867020377E0,-5.455635786E-1,4.019941986E-1,1.039442158E1
2.869145586E0,-5.024927258E-1,2.727817893E-1,1.046620655E1
2.871270794E0,-4.977070987E-1,9.092725813E-2,1.016471100E1
2.873396002E0,-2.632105052E-1,-8.614161611E-2,9.719645500E0
2.875521211E0,-1.387837082E-1,-2.009970993E-1,9.623932838E0
2.877646419E0,-2.249253243E-1,1.674975902E-1,9.595218658E0
2.879771627E0,-3.254238665E-1,4.642075896E-1,9.868000984E0
2.881896836E0,-5.216353536E-1,6.747759581E-1,1.001635551E1
2.884022044E0,-4.163511395E-1,5.838487148E-1,1.006421185E1
2.886147252E0,-2.105683982E-1,5.886343718E-1,9.786644936E0
2.888272461E0,3.349951655E-2,4.067798555E-1,9.848857880E0
2.890397669E0,5.264209956E-2,5.072783828E-1,9.963713646E0
2.892522877E0,-1.818545163E-1,3.541377485E-1,1.031306553E1
2.894648086E0,-3.732803464E-1,2.967100143E-1,1.056670475E1
2.896773294E0,-3.924229145E-1,8.614161611E-2,1.076291656E1
2.898898554E0,-1.818545163E-1,-2.297109663E-1,1.044227791E1
2.901023763E0,3.349951655E-2,-4.642075896E-1,9.863214493E0
2.903148971E0,3.541377485E-1,-3.206382394E-1,9.422935486E0
2.905274179E0,1.435693651E-1,-1.722832322E-1,9.600004196E0
2.907399388E0,8.135596663E-2,4.929214716E-1,9.609575272E0
2.909524596E0,-2.392822690E-2,7.609176040E-1,9.844072342E0
2.911649804E0,2.392822690E-2,7.704889178E-1,9.834501266E0
2.913775013E0,3.110669553E-1,6.843472719E-1,9.772287369E0
2.915900221E0,3.828516304E-1,6.843472719E-1,9.561718941E0
2.918025429E0,3.254238665E-1,6.317051649E-1,9.729216576E0
2.920150638E0,-9.571290575E-3,6.699903607E-1,1.006899738E1
2.922275846E0,-3.397808075E-1,4.019941986E-1,1.015035343E1
2.924401054E0,-5.216353536E-1,1.244267747E-1,1.029392338E1
2.926526263E0,-2.679961324E-1,1.004985496E-1,1.031306553E1
2.928651471E0,-5.742774159E-2,-3.493520916E-1,1.050449181E1
2.930776679E0,0.000000000E0,-2.392822653E-1,1.015992451E1
2.932901888E0,5.742774159E-2,-2.871387303E-1,9.915857315E0
2.935027096E0,-1.531406492E-1,-1.531406492E-1,9.820143700E0
2.937152304E0,-1.579262912E-1,2.009970993E-1,9.872786522E0
2.939277513E0,-8.614161611E-2,4.881358147E-1,9.982855797E0
2.941402721E0,7.657032460E-2,6.891329288E-1,1.005464077E1
2.943527929E0,2.344966233E-1,6.939185858E-1,9.987641335E0
2.945653138E0,9.571290761E-2,8.422735929E-1,9.887143135E0
2.947778346E0,-1.339980662E-1,7.082754970E-1,1.004985523E1
2.949903554E0,-1.627119333E-1,6.747759581E-1,1.018385315E1
2.952028763E0,-4.115654826E-1,3.780659735E-1,1.027956581E1
2.954154023E0,-4.115654826E-1,2.009970993E-1,1.036092186E1
2.956279231E0,-2.153540403E-1,1.627119333E-1,1.056670475E1
2.958404440E0,-3.206382394E-1,-5.742774159E-2,1.061934662E1
2.960529648E0,-3.541377485E-1,-1.339980662E-1,1.024606609E1
2.962654856E0,-4.115654826E-1,-3.493520916E-1,9.944570541E0
2.964780065E0,-2.057827413E-1,-4.163511395E-1,9.753145218E0
2.966905273E0,2.871387079E-2,-9.092725813E-2,9.542576790E0
2.969030481E0,1.914258115E-2,3.732803464E-1,9.609575272E0
2.971155690E0,8.135596663E-2,7.082754970E-1,9.877572060E0
2.973280898E0,1.435693540E-2,8.087740541E-1,9.906285286E0
2.975406106E0,-7.657032460E-2,8.231309652E-1,9.705288887E0
2.977531315E0,-1.052841991E-1,7.130611539E-1,9.547362328E0
2.979656523E0,-1.339980662E-1,5.934200287E-1,9.604789734E0
2.981781731E0,-2.632105052E-1,3.972085714E-1,9.858428955E0
2.983906940E0,-3.397808075E-1,4.211367965E-1,1.004506969E1
2.986032148E0,-3.924229145E-1,4.354937077E-1,1.039442158E1
2.988157356E0,-5.407779217E-1,2.057827413E-1,1.049013424E1
2.990282565E0,-4.977070987E-1,-1.052841991E-1,1.025085258E1
2.992407773E0,-4.067798555E-1,-2.632105052E-1,9.949356079E0
2.994532981E0,-9.571290761E-2,-4.115654826E-1,9.676574707E0
2.996658190E0,-1.100698411E-1,-1.100698411E-1,9.667003632E0
2.998783398E0,-2.249253243E-1,2.392822653E-1,9.949356079E0
3.000908606E0,-5.024927258E-1,4.307080805E-1,1.006421185E1
3.003033815E0,-4.211367965E-1,5.216353536E-1,9.978070259E0
3.005159023E0,-2.488535494E-1,5.120640397E-1,9.729216576E0
3.007284231E0,-1.004985496E-1,4.737788737E-1,9.600004196E0
3.009409440E0,5.742774159E-2,5.120640397E-1,9.801001549E0
3.011534700E0,-1.914258152E-1,4.450650215E-1,1.023649502E1
3.013659856E0,-3.780659735E-1,4.833501875E-1,1.049491978E1
3.015785065E0,-5.838487148E-1,2.727817893E-1,1.058584690E1
3.017910325E0,-5.216353536E-1,-1.435693651E-1,1.025563812E1
3.020035533E0,-2.679961324E-1,-4.498506486E-1,9.810572624E0
3.022160742E0,-9.571290575E-3,-3.972085714E-1,9.446864128E0
3.024285950E0,1.292124242E-1,-3.972085714E-1,9.561718941E0
3.026411158E0,6.699903309E-2,2.153540403E-1,9.700503349E0
3.028536367E0,3.828516230E-2,5.599204898E-1,9.796216011E0
3.030661575E0,-6.221338734E-2,5.024927258E-1,9.810572624E0
3.032786783E0,2.105683982E-1,5.742774606E-1,9.614361763E0
3.034911992E0,3.254238665E-1,4.546363056E-1,9.537791252E0
3.037037200E0,2.009970993E-1,4.737788737E-1,9.542576790E0
3.039162408E0,2.392822690E-2,4.785645306E-1,9.872786522E0
3.041287617E0,-3.349951804E-1,5.120640397E-1,1.018385315E1
3.043412825E0,-6.460621357E-1,3.589234054E-1,1.040877819E1
3.045538033E0,-6.317051649E-1,2.536391914E-1,1.038485050E1
3.047663242E0,-3.541377485E-1,2.392822690E-2,1.029392338E1
3.049788450E0,-2.871387303E-1,7.657032460E-2,1.009292603E1
3.051913658E0,-3.780659735E-1,-2.871387079E-2,1.008814049E1
3.054038867E0,-3.972085714E-1,2.392822690E-2,1.005464077E1
3.056164075E0,-3.876372576E-1,2.536391914E-1,1.004028416E1
3.058289283E0,-3.541377485E-1,3.924229145E-1,1.008335495E1
3.060414492E0,-1.004985496E-1,4.019941986E-1,9.968499184E0
3.062539700E0,5.264209956E-2,3.302095234E-1,9.934999466E0
3.064664908E0,1.244267747E-1,6.412764788E-1,9.848857880E0
3.066790117E0,-1.818545163E-1,6.699903607E-1,1.006421185E1
3.068915325E0,-2.440679073E-1,7.369893789E-1,1.024128056E1
3.071040586E0,-4.594219327E-1,5.886343718E-1,1.040877819E1
3.073165794E0,-3.541377485E-1,3.158525825E-1,1.036092186E1
3.075291002E0,-3.397808075E-1,2.632105052E-1,1.030349445E1
3.077416211E0,-4.067798555E-1,5.742774159E-2,1.042313576E1
3.079541419E0,-3.206382394E-1,-7.178468257E-2,1.016471100E1
3.081666627E0,-3.589234054E-1,-3.589234054E-1,1.002592659E1
3.083791836E0,-2.536391914E-1,-4.211367965E-1,9.801001549E0
3.085917044E0,5.264209956E-2,-9.092725813E-2,9.595218658E0
3.088042252E0,1.770688742E-1,2.488535494E-1,9.547362328E0
3.090167461E0,1.483550072E-1,5.072783828E-1,9.590433121E0
3.092292669E0,8.614161611E-2,6.604190469E-1,9.571290970E0
3.094417877E0,-3.828516230E-2,8.039883971E-1,9.494720459E0
3.096543086E0,-2.584248483E-1,6.460621357E-1,9.528220177E0
3.098668294E0,-2.584248483E-1,5.120640397E-1,9.413364410E0
3.100793502E0,-3.110669553E-1,3.397808075E-1,9.485149384E0
3.102918711E0,-3.828516304E-1,4.211367965E-1,9.671789169E0
3.105043919E0,-4.594219327E-1,5.264210105E-1,1.020778179E1
3.107169127E0,-5.024927258E-1,4.019941986E-1,1.036570740E1
3.109294336E0,-5.694918036E-1,1.148554832E-1,1.027956581E1
3.111419544E0,-4.354937077E-1,-1.818545163E-1,1.000199890E1
3.113544752E0,-2.871387303E-1,-3.876372576E-1,9.781859398E0
3.115669961E0,-2.632105052E-1,-6.699903309E-2,9.638289452E0
3.117795169E0,-2.775674164E-1,3.445664644E-1,9.915857315E0
3.119920377E0,-5.072783828E-1,6.556333899E-1,1.020778179E1
3.122045586E0,-5.599204898E-1,6.364908218E-1,1.018385315E1
3.124170794E0,-4.785645306E-1,7.848458290E-1,9.757930756E0
3.126296002E0,-3.637090325E-1,7.034898400E-1,9.590433121E0
3.128421263E0,-1.435693651E-1,6.843472719E-1,9.700503349E0
3.130546471E0,-2.967100143E-1,5.694918036E-1,1.002592659E1
3.132671679E0,-4.402793646E-1,5.647061467E-1,1.033220863E1
3.134796888E0,-5.982056856E-1,5.503492355E-1,1.052841949E1
3.136922096E0,-5.264210105E-1,1.148554832E-1,1.040877819E1
3.139047304E0,-3.541377485E-1,-8.614161611E-2,9.915857315E0
3.141172513E0,-1.914258115E-2,-2.297109663E-1,9.499505997E0
3.143297721E0,1.531406492E-1,-2.392822653E-1,9.518648148E0
3.145422929E0,1.435693651E-1,3.254238665E-1,9.566504478E0
3.147548138E0,-3.349951655E-2,6.364908218E-1,9.848857880E0
3.149673346E0,-1.674975902E-1,8.039883971E-1,9.839286804E0
3.151798554E0,-1.914258115E-2,7.752745152E-1,9.724431038E0
3.153923763E0,1.627119333E-1,7.082754970E-1,9.489934921E0
3.156048971E0,2.249253243E-1,5.168496966E-1,9.494720459E0
3.158174179E0,2.440679073E-1,8.757730722E-1,9.585647583E0
3.160299388E0,-2.584248483E-1,4.977070987E-1,9.982855797E0
3.162424596E0,-3.349951804E-1,5.216353536E-1,1.004985523E1
3.164549804E0,-4.785645306E-1,2.057827413E-1,1.015992451E1
3.166675013E0,-3.397808075E-1,-6.699903309E-2,9.992427826E0
3.168800221E0,-1.483550072E-1,-2.679961324E-1,9.925428391E0
3.170925429E0,-2.632105052E-1,-2.009970993E-1,9.757930756E0
3.173050638E0,-4.067798555E-1,-1.770688742E-1,9.801001549E0
3.175175846E0,-4.642075896E-1,3.062812984E-1,9.820143700E0
3.177301106E0,-5.024927258E-1,6.077769399E-1,9.920642853E0
3.179426263E0,-3.062812984E-1,7.130611539E-1,9.872786522E0
3.181551523E0,-1.866401732E-1,7.465606928E-1,9.638289452E0
3.183676731E0,-1.435693540E-2,8.374879360E-1,9.556933403E0
3.185801940E0,-1.244267747E-1,9.475577474E-1,9.753145218E0
3.187927148E0,-3.684946895E-1,7.609176040E-1,1.003549862E1
3.190052356E0,-6.077769399E-1,5.647061467E-1,1.020778179E1
3.192177565E0,-6.987041831E-1,3.684946895E-1,1.026999474E1
3.194302773E0,-5.216353536E-1,1.579262912E-1,1.032263660E1
3.196427981E0,-3.828516304E-1,-1.196411327E-1,1.022213840E1
3.198553138E0,-3.493520916E-1,-1.004985496E-1,9.973284721E0
3.200678398E0,-4.354937077E-1,-3.014956415E-1,9.834501266E0
3.202803606E0,-2.679961324E-1,-2.727817893E-1,9.834501266E0
3.204928815E0,3.828516230E-2,-4.785645381E-2,9.757930756E0
3.207054023E0,7.178468257E-2,4.259224236E-1,9.734002113E0
3.209179231E0,6.699903309E-2,6.987041831E-1,9.815358162E0
3.211304440E0,2.775674164E-1,8.614161611E-1,9.877572060E0
3.213429648E0,-1.435693540E-2,1.009771109E0,9.781859398E0
3.215554856E0,-2.584248483E-1,8.949156404E-1,9.753145218E0
3.217680065E0,-2.392822653E-1,7.896314859E-1,9.628718376E0
3.219805273E0,-4.019941986E-1,5.072783828E-1,9.757930756E0
3.221930481E0,-3.876372576E-1,2.919243574E-1,9.863214493E0
3.224055690E0,-3.780659735E-1,2.727817893E-1,1.015992451E1
3.226180898E0,-5.790630579E-1,1.818545163E-1,1.039442158E1
3.228306106E0,-8.327022791E-1,1.435693540E-2,1.036092186E1
3.230431315E0,-6.939185858E-1,-2.009970993E-1,9.973284721E0
3.232556575E0,-5.886343718E-1,-4.115654826E-1,9.681360245E0
3.234681731E0,-4.067798555E-1,-3.349951655E-2,9.614361763E0
3.236806992E0,-2.105683982E-1,1.770688742E-1,1.002114105E1
3.238932200E0,-2.679961324E-1,4.929214716E-1,1.035613632E1
3.241057408E0,-4.354937077E-1,6.317051649E-1,1.029392338E1
3.243182617E0,-5.264210105E-1,6.747759581E-1,9.925428391E0
3.245307825E0,-4.594219327E-1,4.307080805E-1,9.762716293E0
3.247433033E0,-2.297109663E-1,5.168496966E-1,9.753145218E0
3.249558242E0,-5.024927258E-1,3.397808075E-1,1.011206818E1
3.251683450E0,-4.546363056E-1,3.110669553E-1,1.040399265E1
3.253808658E0,-5.168496966E-1,2.584248483E-1,1.063848972E1
3.255933867E0,-5.838487148E-1,-5.264209956E-2,1.033699417E1
3.258059075E0,-4.450650215E-1,-3.445664644E-1,9.868000984E0
3.260184283E0,0.000000000E0,-4.642075896E-1,9.580862045E0
3.262309492E0,8.135596663E-2,-4.689932466E-1,9.757930756E0
3.264434700E0,2.057827413E-1,4.307080805E-2,9.767501831E0
3.266559908E0,2.871387079E-2,4.833501875E-1,1.000199890E1
3.268685117E0,-2.009970993E-1,6.747759581E-1,1.007856941E1
3.270810325E0,-7.178468257E-2,7.369893789E-1,9.882357597E0
3.272935533E0,1.339980662E-1,6.173482537E-1,9.576076508E0
3.275060742E0,1.579262912E-1,4.785645306E-1,9.466006279E0
3.277185950E0,1.196411327E-1,6.269195080E-1,9.863214493E0
3.279311158E0,-3.828516230E-2,5.742774606E-1,1.037049294E1
3.281436367E0,-4.402793646E-1,5.168496966E-1,1.056670475E1
3.283561575E0,-5.216353536E-1,2.967100143E-1,1.053799057E1
3.285686836E0,-4.163511395E-1,-1.914258115E-2,1.039442158E1
3.287812044E0,-1.962114573E-1,-3.158525825E-1,1.016949654E1
3.289937252E0,-1.004985496E-1,-3.349951804E-1,1.006421185E1
3.292062461E0,-1.962114573E-1,-2.775674164E-1,1.012164021E1
3.294187669E0,-2.727817893E-1,1.674975902E-1,1.008335495E1
3.296312825E0,-3.732803464E-1,4.594219327E-1,1.018385315E1
3.298438086E0,-4.115654826E-1,5.694918036E-1,1.012642574E1
3.300563294E0,-1.770688742E-1,6.317051649E-1,9.901499748E0
3.302688502E0,-5.264209956E-2,7.130611539E-1,9.753145218E0
3.304813711E0,-1.244267747E-1,8.279166222E-1,9.982855797E0
3.306938919E0,-3.158525825E-1,7.657032609E-1,1.034656525E1
3.309064127E0,-7.082754970E-1,5.982056856E-1,1.056191921E1
3.311189336E0,-7.130611539E-1,4.211367965E-1,1.060977554E1
3.313314544E0,-5.503492355E-1,1.052841991E-1,1.066241741E1
3.315439752E0,-2.967100143E-1,-1.483550072E-1,1.045184898E1
3.317564961E0,-2.584248483E-1,-2.919243574E-1,1.032263660E1
3.319690169E0,-2.727817893E-1,-4.402793646E-1,1.019820976E1
3.321815377E0,-3.924229145E-1,-3.302095234E-1,1.023170948E1
3.323940638E0,-2.679961324E-1,-1.531406492E-1,1.005464077E1
3.326065846E0,-2.009970993E-1,2.057827413E-1,9.820143700E0
3.328191002E0,-1.435693651E-1,4.163511395E-1,9.676574707E0
3.330316263E0,-5.264209956E-2,4.737788737E-1,9.590433121E0
3.332441471E0,-1.052841991E-1,6.508477330E-1,9.499505997E0
3.334566679E0,-3.684946895E-1,7.609176040E-1,9.647860527E0
3.336691888E0,-3.780659735E-1,7.034898400E-1,9.777072906E0
3.338817096E0,-5.072783828E-1,5.024927258E-1,9.877572060E0
3.340942304E0,-4.594219327E-1,4.594219327E-1,9.920642853E0
3.343067513E0,-3.541377485E-1,3.110669553E-1,1.014078236E1
3.345192721E0,-3.349951804E-1,1.627119333E-1,1.022692394E1
3.347317929E0,-4.737788737E-1,4.307080805E-2,1.020299530E1
3.349443138E0,-5.072783828E-1,-5.264209956E-2,1.006899738E1
3.351568346E0,-4.067798555E-1,-3.732803464E-1,9.896714211E0
3.353693554E0,-2.297109663E-1,-6.221338734E-2,9.556933403E0
3.355818763E0,-1.531406492E-1,1.914258152E-1,9.719645500E0
3.357943971E0,-2.057827413E-1,4.354937077E-1,9.939785004E0
3.360069179E0,-2.488535494E-1,6.269195080E-1,9.987641335E0
3.362194388E0,-2.775674164E-1,7.465606928E-1,9.801001549E0
3.364319596E0,-3.541377485E-1,5.790630579E-1,9.791430473E0
3.366444804E0,-2.775674164E-1,6.221339107E-1,9.762716293E0
3.368570013E0,-3.254238665E-1,4.211367965E-1,9.848857880E0
3.370695221E0,-3.445664644E-1,4.881358147E-1,1.010728264E1
3.372820429E0,-4.642075896E-1,4.259224236E-1,1.042313576E1
3.374945638E0,-5.264210105E-1,1.722832322E-1,1.040877819E1
3.377070898E0,-3.637090325E-1,-1.292124242E-1,9.978070259E0
3.379196106E0,-1.052841991E-1,-2.297109663E-1,9.595218658E0
3.381321315E0,1.004985496E-1,-2.775674164E-1,9.437292099E0
3.383446523E0,2.584248483E-1,3.014956415E-1,9.475577354E0
3.385571731E0,1.148554832E-1,6.412764788E-1,9.805787086E0
3.387696940E0,-1.339980662E-1,7.130611539E-1,1.000678444E1
3.389822148E0,-1.770688742E-1,7.465606928E-1,9.781859398E0
3.391947356E0,-7.178468257E-2,6.412764788E-1,9.375079155E0
3.394072565E0,-1.052841991E-1,4.881358147E-1,9.226723671E0
3.396197773E0,-1.770688742E-1,4.594219327E-1,9.245866776E0
3.398322981E0,-4.019941986E-1,5.359922647E-1,9.576076508E0
3.400448190E0,-5.982056856E-1,5.072783828E-1,1.016949654E1
3.402573398E0,-6.795616150E-1,3.349951804E-1,1.032263660E1
3.404698606E0,-5.264210105E-1,-7.178468257E-2,1.000678444E1
3.406823815E0,-1.818545163E-1,-2.153540403E-1,9.561718941E0
3.408949023E0,-5.264209956E-2,-4.211367965E-1,9.729216576E0
3.411074231E0,7.178468257E-2,-2.871387303E-1,1.011206818E1
3.413199440E0,-1.435693540E-2,2.297109663E-1,1.026999474E1
3.415324648E0,-2.584248483E-1,4.307080805E-1,1.024128056E1
3.417449856E0,-3.493520916E-1,4.163511395E-1,9.987641335E0
3.419575065E0,-1.148554832E-1,3.158525825E-1,9.585647583E0
3.421700325E0,-4.785645381E-2,4.689932466E-1,9.394221306E0
3.423825533E0,-4.785645381E-2,4.689932466E-1,9.542576790E0
3.425950742E0,-1.914258152E-1,6.460621357E-1,9.939785004E0
3.428075950E0,-4.546363056E-1,5.359922647E-1,1.025085258E1
3.430201158E0,-6.125625968E-1,4.211367965E-1,1.042792130E1
3.432326367E0,-5.120640397E-1,1.770688742E-1,1.037527943E1
3.434451575E0,-3.062812984E-1,-1.722832322E-1,1.010728264E1
3.436576783E0,-1.722832322E-1,1.387837082E-1,9.877572060E0
3.438701992E0,-4.019941986E-1,-5.407779217E-1,1.003549862E1
3.440827200E0,-2.249253243E-1,6.221338734E-2,9.853643417E0
3.442952408E0,-2.919243574E-1,0.000000000E0,9.748359680E0
3.445077617E0,-1.292124242E-1,5.886343718E-1,9.461220741E0
3.447202825E0,-2.392822690E-2,4.689932466E-1,9.480362892E0
3.449328033E0,1.914258152E-1,6.364908218E-1,9.193224907E0
3.451453242E0,8.614161611E-2,7.752745152E-1,9.260223389E0
3.453578450E0,-2.967100143E-1,9.714859724E-1,9.355937004E0
3.455703658E0,-4.067798555E-1,7.465606928E-1,9.485149384E0
3.457828867E0,-5.551348329E-1,6.460621357E-1,9.422935486E0
3.459954075E0,-5.647061467E-1,4.977070987E-1,9.580862045E0
3.462079283E0,-1.914258152E-1,4.737788737E-1,9.796216011E0
3.464204544E0,-2.057827413E-1,3.684946895E-1,1.001635551E1
3.466329752E0,-2.057827413E-1,3.349951804E-1,1.000199890E1
3.468454961E0,-2.775674164E-1,2.632105052E-1,1.006899738E1
3.470580169E0,-2.488535494E-1,-2.488535494E-1,9.973284721E0
3.472705377E0,-4.307080805E-2,1.579262912E-1,9.748359680E0
3.474830586E0,-1.435693651E-1,4.785645287E-3,9.863214493E0
3.476955794E0,-1.627119333E-1,2.392822653E-1,9.978070259E0
3.479081002E0,-1.387837082E-1,4.594219327E-1,1.007378292E1
3.481206211E0,-3.206382394E-1,5.742774606E-1,9.906285286E0
3.483331419E0,-2.727817893E-1,5.934200287E-1,9.738788605E0
3.485456627E0,-1.866401732E-1,4.689932466E-1,9.628718376E0
3.487581836E0,-3.924229145E-1,3.493520916E-1,9.729216576E0
3.489707044E0,-3.206382394E-1,4.019941986E-1,1.010249710E1
3.491832252E0,-2.536391914E-1,3.876372576E-1,1.040877819E1
3.493957461E0,-3.876372576E-1,2.153540403E-1,1.032742214E1
3.496082669E0,-3.876372576E-1,4.785645381E-2,1.000678444E1
3.498207877E0,-1.148554832E-1,-2.057827413E-1,9.671789169E0
3.500333086E0,8.135596663E-2,-1.244267747E-1,9.427721024E0
3.502458294E0,2.201396823E-1,4.498506486E-1,9.408578873E0
3.504583502E0,1.579262912E-1,7.226324677E-1,9.762716293E0
3.506708711E0,4.307080805E-2,7.034898400E-1,9.982855797E0
3.508833919E0,-4.785645287E-3,7.513462901E-1,9.786644936E0
3.510959127E0,6.221338734E-2,5.072783828E-1,9.537791252E0
3.513084388E0,4.307080805E-2,4.546363056E-1,9.212367058E0
3.515209596E0,6.221338734E-2,4.211367965E-1,9.384650230E0
3.517334804E0,-2.392822653E-1,4.450650215E-1,9.662218094E0
3.519460013E0,-5.168496966E-1,4.737788737E-1,1.012164021E1
3.521585221E0,-5.312066078E-1,6.269195080E-1,1.010728264E1
3.523710429E0,-5.551348329E-1,3.302095234E-1,1.006421185E1
3.525835638E0,-7.657032460E-2,1.770688742E-1,9.547362328E0
3.527960846E0,6.221338734E-2,-1.100698411E-1,9.442078590E0
3.530086054E0,1.770688742E-1,4.785645287E-3,9.662218094E0
3.532211263E0,1.674975902E-1,4.354937077E-1,1.014078236E1
3.534336471E0,-6.221338734E-2,6.987041831E-1,1.040877819E1
3.536461679E0,-1.818545163E-1,7.034898400E-1,1.037527943E1
3.538586888E0,-8.614161611E-2,5.647061467E-1,9.858428955E0
3.540712096E0,3.828516230E-2,5.934200287E-1,9.504291534E0
3.542837304E0,1.004985496E-1,5.599204898E-1,9.456435204E0
3.544962513E0,-1.100698411E-1,5.551348329E-1,9.805787086E0
3.547087773E0,-3.541377485E-1,5.599204898E-1,1.000678444E1
3.549212981E0,-5.312066078E-1,4.594219327E-1,1.032742214E1
3.551338190E0,-4.881358147E-1,2.919243574E-1,1.031785107E1
3.553463398E0,-3.302095234E-1,7.178468257E-2,1.007856941E1
3.555588606E0,-2.871387303E-1,-7.657032460E-2,9.781859398E0
3.557713815E0,-2.440679073E-1,-1.770688742E-1,9.719645500E0
3.559839023E0,-1.052841991E-1,4.307080805E-2,9.896714211E0
3.561964231E0,-1.196411327E-1,2.967100143E-1,9.934999466E0
3.564089440E0,-1.435693651E-1,4.929214716E-1,9.738788605E0
3.566214648E0,0.000000000E0,4.211367965E-1,9.518648148E0
3.568339856E0,4.785645381E-2,4.115654826E-1,9.370293617E0
3.570465065E0,1.435693540E-2,4.977070987E-1,9.432506561E0
3.572590273E0,-1.435693651E-1,5.934200287E-1,9.547362328E0
3.574715481E0,-3.924229145E-1,6.364908218E-1,9.652647018E0
3.576840690E0,-5.551348329E-1,4.115654826E-1,9.729216576E0
3.578965898E0,-4.115654826E-1,3.732803464E-1,9.719645500E0
3.581091106E0,-3.397808075E-1,2.775674164E-1,9.834501266E0
3.583216315E0,-3.254238665E-1,2.297109663E-1,9.954142570E0
3.585341523E0,-3.732803464E-1,1.292124242E-1,1.004985523E1
3.587466731E0,-4.929214716E-1,-2.871387079E-2,1.010249710E1
3.589591940E0,-6.029912829E-1,-1.627119333E-1,1.012642574E1
3.591717148E0,-3.589234054E-1,7.178468257E-2,9.844072342E0
3.593842408E0,-2.727817893E-1,1.722832322E-1,9.858428955E0
3.595967565E0,-2.392822653E-1,2.967100143E-1,9.896714211E0
3.598092825E0,-2.919243574E-1,4.354937077E-1,9.987641335E0
3.600218033E0,-4.067798555E-1,5.742774606E-1,9.805787086E0
3.602343242E0,-4.785645306E-1,5.838487148E-1,9.762716293E0
3.604468450E0,-4.881358147E-1,5.934200287E-1,9.781859398E0
3.606593658E0,-4.259224236E-1,4.594219327E-1,1.003549862E1
3.608718867E0,-3.493520916E-1,3.684946895E-1,1.022692394E1
3.610844075E0,-2.679961324E-1,2.344966233E-1,1.043270683E1
3.612969283E0,-2.249253243E-1,1.435693651E-1,1.030349445E1
3.615094492E0,-3.014956415E-1,-7.657032460E-2,1.000678444E1
3.617219700E0,-1.148554832E-1,-3.158525825E-1,9.714859962E0
3.619344908E0,1.483550072E-1,-1.435693651E-1,9.623932838E0
3.621470117E0,2.153540403E-1,3.589234054E-1,9.566504478E0
3.623595325E0,5.742774159E-2,6.747759581E-1,9.801001549E0
3.625720533E0,-8.614161611E-2,9.236295223E-1,9.872786522E0
3.627845742E0,-1.866401732E-1,8.470591903E-1,9.724431038E0
3.629970950E0,-1.579262912E-1,6.843472719E-1,9.427721024E0
3.632096211E0,5.742774159E-2,5.982056856E-1,9.456435204E0
3.634221419E0,9.092725813E-2,5.599204898E-1,9.695717812E0
3.636346627E0,-1.244267747E-1,5.599204898E-1,1.000678444E1
3.638471836E0,-3.158525825E-1,7.657032609E-1,1.033699417E1
3.640597044E0,-4.737788737E-1,6.317051649E-1,1.058584690E1
3.642722252E0,-5.551348329E-1,2.584248483E-1,1.049491978E1
3.644847461E0,-2.919243574E-1,-1.914258115E-2,1.005464077E1
3.646972669E0,-2.488535494E-1,-2.919243574E-1,9.920642853E0
3.649097877E0,-5.742774159E-2,-1.770688742E-1,1.005942631E1
3.651223086E0,-2.201396823E-1,2.775674164E-1,1.031785107E1
3.653348294E0,-3.972085714E-1,6.269195080E-1,1.036570740E1
3.655473502E0,-6.604190469E-1,6.317051649E-1,1.028435135E1
3.657598711E0,-4.642075896E-1,6.412764788E-1,9.820143700E0
3.659723919E0,-3.110669553E-1,5.982056856E-1,9.604789734E0
3.661849127E0,-1.914258152E-1,6.795616150E-1,9.681360245E0
3.663974336E0,-2.632105052E-1,6.556333899E-1,1.023170948E1
3.666099544E0,-5.934200287E-1,7.561319470E-1,1.057627583E1
3.668224804E0,-6.699903607E-1,6.173482537E-1,1.077248764E1
3.670349961E0,-6.221339107E-1,3.684946895E-1,1.064806080E1
3.672475169E0,-5.120640397E-1,4.785645381E-2,1.021256733E1
3.674600429E0,-2.344966233E-1,-2.967100143E-1,9.762716293E0
3.676725638E0,-8.614161611E-2,-3.732803464E-1,9.738788605E0
3.678850846E0,-2.392822690E-2,-1.531406492E-1,9.987641335E0
3.680976054E0,-1.483550072E-1,1.674975902E-1,1.011685371E1
3.683101263E0,-7.178468257E-2,3.637090325E-1,9.896714211E0
3.685226471E0,8.614161611E-2,3.397808075E-1,9.633503914E0
3.687351679E0,2.153540403E-1,3.493520916E-1,9.365508080E0
3.689476888E0,2.440679073E-1,4.977070987E-1,9.355937004E0
3.691602096E0,-9.571290575E-3,6.604190469E-1,9.705288887E0
3.693727304E0,-3.206382394E-1,7.130611539E-1,9.944570541E0
3.695852513E0,-6.364908218E-1,6.460621357E-1,9.934999466E0
3.697977721E0,-6.269195080E-1,6.508477330E-1,9.748359680E0
3.700102929E0,-3.397808075E-1,4.881358147E-1,1.003549862E1
3.702228138E0,-1.531406492E-1,2.057827413E-1,1.006899738E1
3.704353346E0,-1.818545163E-1,7.178468257E-2,1.028913784E1
3.706478554E0,-2.775674164E-1,-1.483550072E-1,1.044706345E1
3.708603763E0,-4.019941986E-1,-1.627119333E-1,1.056670475E1
3.710729023E0,-3.684946895E-1,2.392822690E-2,1.024606609E1
3.712854231E0,-4.115654826E-1,1.100698411E-1,1.009771156E1
3.714979440E0,-3.254238665E-1,2.392822653E-1,1.001635551E1
3.717104648E0,-1.818545163E-1,2.823530734E-1,1.007856941E1
3.719229856E0,-3.110669553E-1,5.072783828E-1,1.003071213E1
3.721355065E0,-5.168496966E-1,6.269195080E-1,1.004985523E1
3.723480273E0,-4.785645306E-1,5.120640397E-1,9.997213364E0
3.725605481E0,-7.034898400E-1,4.737788737E-1,9.954142570E0
3.727730690E0,-5.024927258E-1,3.206382394E-1,1.010249710E1
3.729855898E0,-3.110669553E-1,2.344966233E-1,1.033699417E1
3.731981106E0,-3.445664644E-1,1.722832322E-1,1.015513897E1
3.734106315E0,-4.498506486E-1,1.770688742E-1,9.963713646E0
3.736231523E0,-2.488535494E-1,-1.052841991E-1,9.829715729E0
3.738356731E0,7.657032460E-2,-3.828516230E-2,9.810572624E0
3.740481940E0,2.153540403E-1,3.254238665E-1,9.786644936E0
3.742607148E0,2.105683982E-1,4.498506486E-1,9.891928673E0
3.744732356E0,1.100698411E-1,5.982056856E-1,9.978070259E0
3.746857565E0,-1.196411327E-1,5.264210105E-1,9.896714211E0
3.748982825E0,-1.052841991E-1,4.689932466E-1,9.690931320E0
3.751108033E0,-1.292124242E-1,2.392822653E-1,9.451649666E0
3.753233242E0,-1.866401732E-1,2.871387303E-1,9.533005714E0
3.755358450E0,-3.014956415E-1,1.866401732E-1,9.690931320E0
3.757483658E0,-4.163511395E-1,2.105683982E-1,1.013599682E1
3.759608867E0,-4.067798555E-1,2.775674164E-1,1.047099209E1
3.761734075E0,-3.972085714E-1,2.823530734E-1,1.024606609E1
3.763859283E0,-3.876372576E-1,-1.914258152E-1,9.891928673E0
3.765984492E0,-7.178468257E-2,-2.632105052E-1,9.753145218E0
3.768109700E0,7.657032460E-2,-2.727817893E-1,9.791430473E0
3.770234908E0,1.387837082E-1,3.206382394E-1,1.007856941E1
3.772360117E0,-2.440679073E-1,5.934200287E-1,1.042313576E1
3.774485325E0,-2.967100143E-1,5.838487148E-1,1.010728264E1
3.776610533E0,-3.684946895E-1,6.412764788E-1,9.762716293E0
3.778735742E0,-8.614161611E-2,5.168496966E-1,9.418149948E0
3.780860950E0,-9.571290575E-3,4.259224236E-1,9.762716293E0
3.782986158E0,-2.871387079E-2,3.206382394E-1,1.001635551E1
3.785111367E0,-3.828516304E-1,2.871387303E-1,1.043749237E1
3.787236627E0,-6.364908218E-1,2.871387303E-1,1.046142101E1
3.789361836E0,-6.604190469E-1,1.627119333E-1,1.043270683E1
3.791487044E0,-5.024927258E-1,-3.828516230E-2,1.008814049E1
3.793612252E0,-1.292124242E-1,-2.775674164E-1,9.872786522E0
3.795737461E0,7.178468257E-2,-3.445664644E-1,9.839286804E0
3.797862669E0,1.339980662E-1,-6.699903309E-2,1.006899738E1
3.799987877E0,4.785645381E-2,2.536391914E-1,1.011685371E1
3.802113086E0,-5.742774159E-2,5.551348329E-1,9.949356079E0
3.804238294E0,-2.871387079E-2,4.881358147E-1,9.748359680E0
3.806363502E0,4.307080805E-2,5.599204898E-1,9.365508080E0
3.808488711E0,4.785645381E-2,5.934200287E-1,9.332008362E0
3.810613919E0,1.100698411E-1,6.556333899E-1,9.432506561E0
3.812739127E0,-1.674975902E-1,8.039883971E-1,9.738788605E0
3.814864336E0,-6.029912829E-1,7.226324677E-1,1.001156998E1
3.816989544E0,-6.604190469E-1,6.269195080E-1,1.002114105E1
3.819114700E0,-4.785645306E-1,3.924229145E-1,1.001635551E1
3.821239961E0,-1.866401732E-1,-9.571290575E-3,9.805787086E0
3.823365221E0,-2.536391914E-1,-9.571290575E-3,9.915857315E0
3.825490481E0,-3.732803464E-1,-2.584248483E-1,1.016471100E1
3.827615638E0,-5.886343718E-1,-1.244267747E-1,1.012642574E1
3.829740846E0,-4.833501875E-1,2.057827413E-1,9.801001549E0
3.831866054E0,-5.934200287E-1,3.637090325E-1,9.805787086E0
3.833991263E0,-5.120640397E-1,3.493520916E-1,9.848857880E0
3.836116471E0,-1.627119333E-1,4.307080805E-1,9.738788605E0
3.838241679E0,-1.770688742E-1,5.694918036E-1,9.681360245E0
3.840366888E0,-3.828516304E-1,5.120640397E-1,9.791430473E0
3.842492096E0,-6.364908218E-1,5.168496966E-1,9.954142570E0
3.844617304E0,-6.556333899E-1,2.679961324E-1,1.004028416E1
3.846742513E0,-4.833501875E-1,2.249253243E-1,1.000678444E1
3.848867721E0,-3.541377485E-1,1.435693651E-1,1.010249710E1
3.850992929E0,-3.397808075E-1,9.092725813E-2,1.010728264E1
3.853118190E0,-3.302095234E-1,1.435693540E-2,1.006899738E1
3.855243346E0,-2.105683982E-1,-3.780659735E-1,1.006421185E1
3.857368606E0,-1.435693540E-2,-1.770688742E-1,9.810572624E0
3.859493815E0,2.105683982E-1,4.785645381E-2,9.753145218E0
3.861619023E0,2.632105052E-1,2.392822653E-1,9.753145218E0
3.863744231E0,1.052841991E-1,2.919243574E-1,9.906285286E0
3.865869440E0,3.349951655E-2,4.929214716E-1,9.762716293E0
3.867994648E0,-5.742774159E-2,6.317051649E-1,9.738788605E0
3.870119856E0,-2.201396823E-1,2.775674164E-1,9.777072906E0
3.872245065E0,-3.349951655E-2,2.967100143E-1,9.652647018E0
3.874370273E0,-1.627119333E-1,3.062812984E-1,9.719645500E0
3.876495481E0,-3.732803464E-1,3.302095234E-1,9.839286804E0
3.878620690E0,-2.967100143E-1,3.062812984E-1,1.012164021E1
3.880745898E0,-3.254238665E-1,2.297109663E-1,1.012164021E1
3.882871106E0,-2.775674164E-1,1.244267747E-1,1.008814049E1
3.884996315E0,-1.292124242E-1,-2.153540403E-1,1.014078236E1
3.887121523E0,-4.785645381E-2,4.785645381E-2,1.009292603E1
3.889246783E0,-3.349951655E-2,3.158525825E-1,1.018863869E1
3.891371940E0,-2.009970993E-1,5.072783828E-1,1.026520920E1
3.893497200E0,-4.833501875E-1,5.790630579E-1,1.017428207E1
3.895622408E0,-3.493520916E-1,5.982056856E-1,9.920642853E0
3.897747617E0,-3.206382394E-1,5.168496966E-1,9.714859962E0
3.899872825E0,-1.435693540E-2,4.929214716E-1,9.475577354E0
3.901998033E0,-2.440679073E-1,4.307080805E-1,9.839286804E0
3.904123242E0,-3.876372576E-1,3.254238665E-1,1.014078236E1
3.906248450E0,-5.982056856E-1,4.498506486E-1,1.057627583E1
3.908373658E0,-8.374879360E-1,2.679961324E-1,1.059541893E1
3.910498867E0,-6.125625968E-1,1.914258152E-1,1.026042366E1
3.912624075E0,-4.259224236E-1,-1.292124242E-1,1.014078236E1
3.914749283E0,-1.579262912E-1,-3.206382394E-1,1.006899738E1
3.916874492E0,-1.004985496E-1,6.699903309E-2,1.019820976E1
3.918999700E0,4.307080805E-2,2.153540403E-1,1.015992451E1
3.921124961E0,-3.254238665E-1,4.450650215E-1,1.012164021E1
3.923250169E0,-3.014956415E-1,3.924229145E-1,9.820143700E0
3.925375325E0,-1.579262912E-1,4.833501875E-1,9.470791817E0
3.927500586E0,-1.244267747E-1,4.833501875E-1,9.365508080E0
3.929625794E0,2.871387079E-2,6.843472719E-1,9.523433685E0
3.931751002E0,-3.062812984E-1,5.455635786E-1,9.872786522E0
3.933876211E0,-5.838487148E-1,4.259224236E-1,9.920642853E0
3.936001419E0,-5.742774606E-1,3.780659735E-1,9.858428955E0
3.938126627E0,-3.158525825E-1,1.674975902E-1,9.839286804E0
3.940251836E0,-1.052841991E-1,-7.178468257E-2,9.973284721E0
3.942377044E0,-9.571290575E-3,4.307080805E-2,1.009292603E1
3.944502252E0,-2.392822690E-2,-1.292124242E-1,1.033220863E1
3.946627461E0,-3.302095234E-1,1.052841991E-1,1.034656525E1
3.948752669E0,-4.163511395E-1,4.594219327E-1,1.027478027E1
3.950877877E0,-4.450650215E-1,4.737788737E-1,1.019342422E1
3.953003086E0,-3.684946895E-1,4.354937077E-1,9.915857315E0
3.955128294E0,-1.483550072E-1,4.211367965E-1,9.805787086E0
3.957253554E0,-1.052841991E-1,5.742774606E-1,9.853643417E0
3.959378763E0,-2.727817893E-1,7.513462901E-1,1.006421185E1
3.961503971E0,-5.599204898E-1,5.216353536E-1,1.020299530E1
3.963629179E0,-6.699903607E-1,2.871387303E-1,1.012642574E1
3.965754388E0,-4.450650215E-1,8.614161611E-2,1.019820976E1
3.967879596E0,-2.153540403E-1,-5.264209956E-2,1.019820976E1
3.970004804E0,-1.387837082E-1,-1.292124242E-1,1.010728264E1
3.972130013E0,-1.196411327E-1,1.148554832E-1,9.997213364E0
3.974255221E0,-2.105683982E-1,-3.828516230E-2,1.009771156E1
3.976380429E0,-1.818545163E-1,3.397808075E-1,1.001635551E1
3.978505638E0,3.828516230E-2,5.599204898E-1,9.939785004E0
3.980630846E0,1.579262912E-1,7.704889178E-1,9.877572060E0
3.982756054E0,1.148554832E-1,7.848458290E-1,1.009292603E1
3.984881315E0,1.100698411E-1,8.566305041E-1,1.013121128E1
3.987006523E0,-1.818545163E-1,7.465606928E-1,1.013121128E1
3.989131731E0,-2.775674164E-1,6.795616150E-1,9.949356079E0
3.991256940E0,-2.823530734E-1,3.397808075E-1,9.762716293E0
3.993382148E0,-3.924229145E-1,3.493520916E-1,9.734002113E0
3.995507356E0,-4.259224236E-1,2.584248483E-1,1.006899738E1
3.997632565E0,-1.962114573E-1,1.435693651E-1,1.032742214E1
3.999757773E0,-2.344966233E-1,1.100698411E-1,1.027478027E1
4.001882981E0,-3.637090325E-1,1.435693540E-2,9.958928108E0
4.004008190E0,-2.536391914E-1,-1.196411327E-1,9.834501266E0
4.006133398E0,-1.100698411E-1,1.483550072E-1,9.877572060E0
4.008258606E0,4.785645287E-3,5.599204898E-1,1.012164021E1
4.010383815E0,-4.307080805E-2,8.422735929E-1,1.041356373E1
4.012509023E0,-2.488535494E-1,8.039883971E-1,1.044227791E1
4.014634231E0,-2.297109663E-1,8.422735929E-1,1.005464077E1
4.016759440E0,-3.254238665E-1,6.891329288E-1,9.801001549E0
4.018884648E0,-1.292124242E-1,5.551348329E-1,9.690931320E0
4.021009908E0,-2.440679073E-1,4.402793646E-1,1.009771156E1
4.023135117E0,-2.775674164E-1,3.924229145E-1,1.050927734E1
4.025260325E0,-3.780659735E-1,3.397808075E-1,1.079641533E1
4.027385533E0,-6.221339107E-1,6.221338734E-2,1.051884842E1
4.029510742E0,-4.689932466E-1,-1.435693651E-1,1.000678444E1
4.031635950E0,-3.445664644E-1,-4.642075896E-1,9.734002113E0
4.033761158E0,-9.092725813E-2,-4.450650215E-1,9.494720459E0
4.035886367E0,9.571290761E-2,2.871387079E-2,9.762716293E0
4.038011575E0,9.092725813E-2,5.359922647E-1,1.004506969E1
4.040136783E0,-1.100698411E-1,8.087740541E-1,1.033699417E1
4.042261992E0,-2.057827413E-1,7.609176040E-1,1.010249710E1
4.044387200E0,0.000000000E0,6.843472719E-1,9.528220177E0
4.046512408E0,-8.614161611E-2,5.599204898E-1,9.217152596E0
4.048637617E0,6.699903309E-2,6.747759581E-1,9.332008362E0
4.050762877E0,-1.914258152E-1,6.604190469E-1,9.824930191E0
4.052888086E0,-4.450650215E-1,5.790630579E-1,9.858428955E0
4.055013294E0,-7.609176040E-1,6.460621357E-1,9.973284721E0
4.057138502E0,-6.125625968E-1,3.637090325E-1,9.820143700E0
4.059263711E0,-3.254238665E-1,1.004985496E-1,9.561718941E0
4.061388919E0,-1.818545163E-1,6.699903309E-2,9.375079155E0
4.063514127E0,-1.387837082E-1,-1.435693540E-2,9.690931320E0
4.065639336E0,-1.483550072E-1,2.536391914E-1,1.010249710E1
4.067764544E0,-3.445664644E-1,5.407779217E-1,1.039442158E1
4.069889752E0,-4.833501875E-1,5.264210105E-1,1.032742214E1
4.072014961E0,-2.488535494E-1,4.354937077E-1,1.000678444E1
4.074140169E0,-8.614161611E-2,3.014956415E-1,9.681360245E0
4.076265377E0,-3.349951655E-2,4.546363056E-1,9.561718941E0
4.078390586E0,-2.536391914E-1,4.642075896E-1,9.868000984E0
4.080515794E0,-3.732803464E-1,3.972085714E-1,1.001635551E1
4.082641002E0,-6.221339107E-1,4.594219327E-1,1.010249710E1
4.084766263E0,-5.359922647E-1,1.627119333E-1,1.003071213E1
4.086891471E0,-3.732803464E-1,-6.221338734E-2,9.786644936E0
4.089016679E0,-1.148554832E-1,-7.178468257E-2,9.475577354E0
4.091141888E0,-6.221338734E-2,3.828516230E-2,9.528220177E0
4.093267096E0,-1.627119333E-1,2.871387079E-2,9.891928673E0
4.095392304E0,-1.483550072E-1,4.498506486E-1,9.915857315E0
4.097517513E0,-9.092725813E-2,5.407779217E-1,9.820143700E0
4.099642721E0,1.004985496E-1,5.312066078E-1,9.643074989E0
4.101767929E0,1.818545163E-1,4.450650215E-1,9.442078590E0
4.103893138E0,1.244267747E-1,2.823530734E-1,9.408578873E0
4.106018346E0,-3.828516230E-2,3.014956415E-1,9.566504478E0
4.108143554E0,-8.135596663E-2,2.009970993E-1,9.767501831E0
4.110268815E0,-3.349951804E-1,7.178468257E-2,9.901499748E0
4.112393971E0,-3.589234054E-1,1.244267747E-1,9.805787086E0
4.114519231E0,-2.344966233E-1,2.392822653E-1,9.930213928E0
4.116644440E0,-2.249253243E-1,4.307080805E-2,1.011685371E1
4.118769648E0,-1.531406492E-1,9.571290761E-2,9.939785004E0
4.120894856E0,-3.206382394E-1,2.871387079E-2,9.839286804E0
4.123020065E0,-3.349951804E-1,-1.818545163E-1,9.753145218E0
4.125145273E0,-1.387837082E-1,1.387837082E-1,9.815358162E0
4.127270481E0,-9.571290575E-3,5.647061467E-1,9.963713646E0
4.129395690E0,-9.092725813E-2,7.178468108E-1,1.009771156E1
4.131520898E0,-1.914258152E-1,7.944171429E-1,1.001635551E1
4.133646106E0,-2.249253243E-1,6.939185858E-1,9.848857880E0
4.135771315E0,-3.206382394E-1,4.929214716E-1,9.767501831E0
4.137896523E0,-1.579262912E-1,4.402793646E-1,9.887143135E0
4.140021731E0,-1.483550072E-1,2.297109663E-1,1.016471100E1
4.142146940E0,-3.062812984E-1,1.866401732E-1,1.045184898E1
4.144272200E0,-3.445664644E-1,1.483550072E-1,1.060020447E1
4.146397408E0,-4.067798555E-1,7.178468257E-2,1.048534870E1
4.148522617E0,-4.833501875E-1,-1.196411327E-1,1.023649502E1
4.150647825E0,-2.823530734E-1,-2.392822653E-1,9.906285286E0
4.152773033E0,-4.307080805E-2,-3.206382394E-1,9.738788605E0
4.154898242E0,8.135596663E-2,3.349951655E-2,9.757930756E0
4.157023450E0,9.571290761E-2,5.264210105E-1,9.973284721E0
4.159148658E0,-1.722832322E-1,7.561319470E-1,1.009292603E1
4.161273867E0,-3.732803464E-1,6.652047038E-1,9.997213364E0
4.163399075E0,-1.052841991E-1,5.886343718E-1,9.566504478E0
4.165524283E0,-1.818545163E-1,4.307080805E-1,9.365508080E0
4.167649492E0,-1.627119333E-1,4.785645306E-1,9.332008362E0
4.169774752E0,-1.914258152E-1,4.594219327E-1,9.705288887E0
4.171899961E0,-4.546363056E-1,4.977070987E-1,9.944570541E0
4.174025169E0,-6.795616150E-1,4.498506486E-1,1.018385315E1
4.176150377E0,-5.647061467E-1,2.871387303E-1,9.954142570E0
4.178275586E0,-4.546363056E-1,-7.178468257E-2,9.609575272E0
4.180400794E0,-2.727817893E-1,-1.674975902E-1,9.461220741E0
4.182526002E0,-5.264209956E-2,-2.679961324E-1,9.705288887E0
4.184651211E0,-1.722832322E-1,7.178468257E-2,1.008814049E1
4.186776419E0,-3.541377485E-1,5.120640397E-1,1.026999474E1
4.188901627E0,-4.498506486E-1,6.747759581E-1,1.038485050E1
4.191026836E0,-2.823530734E-1,5.264210105E-1,1.013121128E1
4.193152044E0,-2.297109663E-1,3.972085714E-1,9.647860527E0
4.195277200E0,-1.435693651E-1,4.354937077E-1,9.518648148E0
4.197402513E0,-2.153540403E-1,4.737788737E-1,9.791430473E0
4.199527721E0,-6.699903607E-1,3.206382394E-1,9.992427826E0
4.201652929E0,-8.135597110E-1,3.684946895E-1,1.012642574E1
4.203778138E0,-5.790630579E-1,2.871387303E-1,1.014556789E1
4.205903346E0,-3.924229145E-1,-5.264209956E-2,1.000678444E1
4.208028554E0,-1.435693540E-2,-7.657032460E-2,9.647860527E0
4.210153763E0,1.339980662E-1,-4.785645381E-2,9.700503349E0
4.212278971E0,7.657032460E-2,1.914258115E-2,9.911071777E0
4.214404179E0,4.785645381E-2,5.168496966E-1,1.016471100E1
4.216529388E0,1.387837082E-1,6.699903607E-1,1.013121128E1
4.218654596E0,1.962114573E-1,6.125625968E-1,9.743574142E0
4.220779804E0,2.823530734E-1,5.407779217E-1,9.667003632E0
4.222905013E0,3.110669553E-1,5.742774606E-1,9.552147865E0
4.225030221E0,-4.785645287E-3,6.460621357E-1,9.686145782E0
4.227155429E0,-1.674975902E-1,5.647061467E-1,9.633503914E0
4.229280690E0,-5.072783828E-1,3.493520916E-1,9.743574142E0
4.231405898E0,-3.876372576E-1,2.057827413E-1,9.738788605E0
4.233531106E0,-2.919243574E-1,9.571290761E-2,1.003071213E1
4.235656315E0,2.871387079E-2,2.871387079E-2,1.007378292E1
4.237781523E0,1.244267747E-1,3.828516230E-2,1.014556789E1
4.239906731E0,1.100698411E-1,-2.871387079E-2,9.987641335E0
4.242031940E0,-8.614161611E-2,-1.579262912E-1,1.007378292E1
4.244157148E0,-2.392822690E-2,1.579262912E-1,9.963713646E0
4.246282356E0,7.657032460E-2,4.785645306E-1,9.915857315E0
4.248407565E0,-3.828516230E-2,5.982056856E-1,9.939785004E0
4.250532773E0,-2.105683982E-1,6.939185858E-1,9.906285286E0
4.252657981E0,-2.153540403E-1,8.087740541E-1,9.772287369E0
4.254783242E0,-2.967100143E-1,5.742774606E-1,9.700503349E0
4.256908450E0,-3.397808075E-1,5.312066078E-1,9.767501831E0
4.259033658E0,-3.876372576E-1,3.206382394E-1,9.848857880E0
4.261158867E0,-4.019941986E-1,2.632105052E-1,1.009771156E1
4.263284075E0,-3.254238665E-1,2.823530734E-1,1.042313576E1
4.265409283E0,-5.216353536E-1,1.770688742E-1,1.064327526E1
4.267534492E0,-5.886343718E-1,-8.614161611E-2,1.029392338E1
4.269659700E0,-5.120640397E-1,-3.349951804E-1,9.834501266E0
4.271784908E0,-1.722832322E-1,-4.067798555E-1,9.571290970E0
4.273910117E0,1.435693651E-1,-1.004985496E-1,9.619147301E0
4.276035325E0,1.339980662E-1,4.833501875E-1,9.729216576E0
4.278160533E0,-3.349951655E-2,7.896314859E-1,9.930213928E0
4.280285742E0,-7.657032460E-2,7.274180651E-1,9.868000984E0
4.282411002E0,-7.178468257E-2,7.130611539E-1,9.523433685E0
4.284536211E0,-1.100698411E-1,6.173482537E-1,9.427721024E0
4.286661419E0,4.785645381E-2,5.647061467E-1,9.489934921E0
4.288786627E0,-1.387837082E-1,4.785645306E-1,9.662218094E0
4.290911836E0,-3.780659735E-1,5.455635786E-1,9.834501266E0
4.293036992E0,-5.647061467E-1,5.934200287E-1,1.007378292E1
4.295162252E0,-5.838487148E-1,4.354937077E-1,1.012164021E1
4.297287461E0,-4.689932466E-1,2.632105052E-1,9.815358162E0
4.299412669E0,-2.584248483E-1,-4.307080805E-2,9.542576790E0
4.301537877E0,-1.818545163E-1,-1.627119333E-1,9.609575272E0
4.303663086E0,-2.297109663E-1,2.344966233E-1,9.834501266E0
4.305788294E0,-4.929214716E-1,4.737788737E-1,1.014078236E1
4.307913502E0,-6.604190469E-1,5.599204898E-1,1.020778179E1
4.310038763E0,-3.780659735E-1,5.647061467E-1,1.005942631E1
4.312163971E0,-1.196411327E-1,6.221339107E-1,9.767501831E0
4.314289179E0,-2.392822690E-2,5.312066078E-1,9.662218094E0
4.316414388E0,1.052841991E-1,6.125625968E-1,9.810572624E0
4.318539596E0,-4.642075896E-1,4.929214716E-1,1.015992451E1
4.320664804E0,-6.652047038E-1,4.642075896E-1,1.030349445E1
