"Time (s)","Gyroscope x (rad/s)","Gyroscope y (rad/s)","Gyroscope z (rad/s)"
2.519954400E-2,2.748891478E-3,3.207040019E-3,-6.719512399E-3
2.732475200E-2,-9.162971983E-4,1.786779426E-2,-5.497782957E-3
2.944996100E-2,3.970621154E-3,2.397644334E-2,-3.054323839E-3
3.157516900E-2,5.192350596E-3,1.664606482E-2,6.108647794E-4
3.370032500E-2,5.192350596E-3,-1.756236330E-2,-1.832594397E-3
3.582553300E-2,1.130099874E-2,-4.810560122E-2,-3.054323839E-3
3.795074200E-2,1.130099874E-2,-5.177079141E-2,-4.276053514E-3
4.007595000E-2,5.192350596E-3,-4.199695215E-2,-3.054323839E-3
4.220115800E-2,-9.162971983E-4,-2.855792828E-2,-5.497782957E-3
4.432636700E-2,1.527161920E-3,-1.023198478E-2,-3.054323839E-3
4.645157500E-2,-2.138026757E-3,-1.679878100E-3,-3.054323839E-3
4.857678300E-2,-4.581485875E-3,-2.901607659E-3,-4.276053514E-3
5.070199200E-2,-4.581485875E-3,-4.123337101E-3,-7.941242307E-3
5.282720000E-2,-2.138026757E-3,1.053741761E-2,-9.162971750E-3
5.495240800E-2,-3.359756200E-3,2.397644334E-2,-5.497782957E-3
5.707761700E-2,-3.359756200E-3,1.664606482E-2,-5.497782957E-3
5.920282500E-2,3.054323897E-4,3.207040019E-3,-1.832594397E-3
6.132803300E-2,3.054323897E-4,-5.345067009E-3,-6.108647794E-4
6.345324200E-2,-9.162971983E-4,-1.267544460E-2,-3.054323839E-3
6.557845000E-2,3.054323897E-4,-1.878409274E-2,-4.276053514E-3
6.770365800E-2,-2.138026757E-3,-1.878409274E-2,-1.832594397E-3
6.982886700E-2,-5.803215317E-3,-1.145371422E-2,-6.108647794E-4
7.195407500E-2,-8.246674202E-3,-2.901607659E-3,-1.832594397E-3
7.407928300E-2,-5.803215317E-3,-6.566796452E-3,-6.108647794E-4
7.620449200E-2,-5.803215317E-3,-7.788525894E-3,-1.832594397E-3
7.832970000E-2,-4.581485875E-3,-1.023198478E-2,-4.276053514E-3
8.045490800E-2,-4.581485875E-3,-1.023198478E-2,-5.497782957E-3
8.258011700E-2,-2.138026757E-3,1.985310577E-3,-1.832594397E-3
8.470532500E-2,-2.138026757E-3,1.053741761E-2,-1.832594397E-3
8.683048100E-2,-9.162971983E-4,5.650499370E-3,-4.276053514E-3
8.895569000E-2,2.748891478E-3,-1.679878100E-3,-5.497782957E-3
9.108089800E-2,1.527161920E-3,-7.788525894E-3,-4.276053514E-3
9.320610600E-2,3.054323897E-4,-1.145371422E-2,-5.497782957E-3
9.533131500E-2,1.527161920E-3,-1.023198478E-2,-6.719512399E-3
9.745652300E-2,2.748891478E-3,-1.023198478E-2,-4.276053514E-3
9.958173100E-2,-2.138026757E-3,-1.023198478E-2,-4.276053514E-3
1.017069400E-1,-2.138026757E-3,-7.788525894E-3,-4.276053514E-3
1.038321480E-1,-2.138026757E-3,-1.679878100E-3,-5.497782957E-3
1.059573560E-1,-9.162971983E-4,3.207040019E-3,-7.941242307E-3
1.080825650E-1,-9.162971983E-4,4.428769462E-3,-6.719512399E-3
1.102077730E-1,-9.162971983E-4,6.872228812E-3,-6.719512399E-3
1.123329810E-1,3.970621154E-3,8.093958721E-3,-5.497782957E-3
1.144581900E-1,6.414080039E-3,7.635809598E-4,-6.719512399E-3
1.165833980E-1,1.007926930E-2,-1.511890348E-2,-6.719512399E-3
1.187086060E-1,1.252272818E-2,-2.122755162E-2,-6.719512399E-3
1.208338150E-1,1.374445762E-2,-2.122755162E-2,-4.276053514E-3
1.229590230E-1,1.130099874E-2,-1.756236330E-2,-3.054323839E-3
1.250842310E-1,1.130099874E-2,-1.878409274E-2,-4.276053514E-3
1.272094400E-1,1.007926930E-2,-1.878409274E-2,-3.054323839E-3
1.293346480E-1,2.748891478E-3,-9.010255337E-3,-4.276053514E-3
1.314598560E-1,-2.138026757E-3,1.985310577E-3,-5.497782957E-3
1.335850650E-1,-2.138026757E-3,1.985310577E-3,-6.719512399E-3
1.357102730E-1,2.748891478E-3,-4.581485991E-4,-4.276053514E-3
1.378354810E-1,1.527161920E-3,-1.023198478E-2,-3.054323839E-3
1.399606900E-1,2.748891478E-3,-2.855792828E-2,-4.276053514E-3
1.420858980E-1,7.635809947E-3,-3.344484791E-2,-5.497782957E-3
1.442110540E-1,5.192350596E-3,-2.733619884E-2,-5.497782957E-3
1.463362630E-1,2.748891478E-3,-1.878409274E-2,-7.941242307E-3
1.484614710E-1,3.970621154E-3,-7.788525894E-3,-4.276053514E-3
1.505866790E-1,3.970621154E-3,-4.123337101E-3,-1.832594397E-3
1.527118880E-1,3.970621154E-3,-1.267544460E-2,-3.054323839E-3
1.548370960E-1,6.414080039E-3,-2.000582218E-2,-4.276053514E-3
1.569623040E-1,2.748891478E-3,-1.511890348E-2,-3.054323839E-3
1.590875130E-1,-2.138026757E-3,-2.901607659E-3,-5.497782957E-3
1.612127210E-1,-2.138026757E-3,8.093958721E-3,-4.276053514E-3
1.633379290E-1,-2.138026757E-3,1.175914705E-2,-4.276053514E-3
1.654631380E-1,-2.138026757E-3,1.053741761E-2,-4.276053514E-3
1.675881900E-1,-2.138026757E-3,-4.581485991E-4,-6.719512399E-3
1.697135540E-1,-9.162971983E-4,-2.901607659E-3,-1.038470119E-2
1.718387630E-1,3.054323897E-4,5.650499370E-3,-9.162971750E-3
1.739639710E-1,-9.162971983E-4,1.420260593E-2,-6.719512399E-3
1.760891790E-1,-2.138026757E-3,1.420260593E-2,-4.276053514E-3
1.782143880E-1,3.054323897E-4,1.053741761E-2,-1.832594397E-3
1.803395960E-1,2.748891478E-3,3.207040019E-3,-6.108647794E-4
1.824648040E-1,3.054323897E-4,-2.901607659E-3,-3.054323839E-3
1.845900130E-1,1.527161920E-3,-1.023198478E-2,-3.054323839E-3
1.867152210E-1,1.527161920E-3,-1.389717404E-2,-1.832594397E-3
1.888404290E-1,-2.138026757E-3,-9.010255337E-3,-1.832594397E-3
1.909656380E-1,-4.581485875E-3,-5.345067009E-3,-6.108647794E-4
1.930908460E-1,-2.138026757E-3,-1.023198478E-2,-6.108647794E-4
1.952160020E-1,-9.162971983E-4,-1.634063199E-2,-6.108647794E-4
1.973412110E-1,-9.162971983E-4,-2.244928107E-2,-3.054323839E-3
1.994664190E-1,-2.138026757E-3,-2.367101051E-2,-4.276053514E-3
2.015916270E-1,2.748891478E-3,-9.010255337E-3,-1.832594397E-3
2.037168360E-1,3.054323897E-4,3.207040019E-3,-6.108647794E-4
2.058420440E-1,-9.162971983E-4,-2.901607659E-3,-1.832594397E-3
2.079672520E-1,2.748891478E-3,-1.389717404E-2,-1.832594397E-3
2.100924610E-1,1.527161920E-3,-1.511890348E-2,-6.108647794E-4
2.122176690E-1,-2.138026757E-3,-1.267544460E-2,-3.054323839E-3
2.143428770E-1,1.527161920E-3,-1.023198478E-2,-3.054323839E-3
2.164680860E-1,2.748891478E-3,-9.010255337E-3,-6.108647794E-4
2.185932940E-1,-9.162971983E-4,-9.010255337E-3,-1.832594397E-3
2.207185020E-1,-3.359756200E-3,-1.634063199E-2,-1.832594397E-3
2.228437110E-1,3.054323897E-4,-2.122755162E-2,-3.054323839E-3
2.249689190E-1,1.527161920E-3,-1.023198478E-2,-4.276053514E-3
2.270941270E-1,-9.162971983E-4,-4.581485991E-4,-4.276053514E-3
2.292193360E-1,1.527161920E-3,1.786779426E-2,-1.832594397E-3
2.313445440E-1,1.527161920E-3,2.886336111E-2,-1.832594397E-3
2.334697520E-1,3.970621154E-3,2.641990222E-2,-1.832594397E-3
2.355949610E-1,6.414080039E-3,1.175914705E-2,-1.832594397E-3
2.377201690E-1,7.635809947E-3,-4.581485991E-4,-1.832594397E-3
2.398453770E-1,6.414080039E-3,-7.788525894E-3,-6.108647794E-4
2.419705860E-1,7.635809947E-3,-1.145371422E-2,-6.108647794E-4
2.440957940E-1,1.007926930E-2,-1.511890348E-2,6.108647794E-4
2.462209500E-1,5.192350596E-3,-1.389717404E-2,6.108647794E-4
2.483461580E-1,-9.162971983E-4,-6.566796452E-3,-6.108647794E-4
2.504713670E-1,-4.581485875E-3,6.872228812E-3,-3.054323839E-3
2.525965750E-1,-4.581485875E-3,2.031125315E-2,-3.054323839E-3
2.547217830E-1,-4.581485875E-3,2.519817278E-2,-6.108647794E-4
2.568469920E-1,-2.138026757E-3,1.053741761E-2,6.108647794E-4
2.589722000E-1,3.054323897E-4,-9.010255337E-3,-1.832594397E-3
2.610974080E-1,3.970621154E-3,-2.244928107E-2,-1.832594397E-3
2.632226170E-1,5.192350596E-3,-2.000582218E-2,-3.054323839E-3
2.653478250E-1,3.970621154E-3,-1.511890348E-2,-3.054323839E-3
2.674730330E-1,6.414080039E-3,-1.679878100E-3,-6.108647794E-4
2.695982420E-1,3.970621154E-3,9.315688163E-3,6.108647794E-4
2.717234500E-1,1.527161920E-3,5.650499370E-3,-6.108647794E-4
2.738486580E-1,3.970621154E-3,5.650499370E-3,-1.832594397E-3
2.759738670E-1,3.970621154E-3,5.650499370E-3,-6.108647794E-4
2.780990750E-1,-9.162971983E-4,4.428769462E-3,-1.832594397E-3
2.802242830E-1,-2.138026757E-3,4.428769462E-3,-6.108647794E-4
2.823494920E-1,3.054323897E-4,6.872228812E-3,6.108647794E-4
2.844747000E-1,2.748891478E-3,4.428769462E-3,6.108647794E-4
2.865999080E-1,2.748891478E-3,-9.010255337E-3,-1.832594397E-3
2.887251170E-1,3.970621154E-3,-7.788525894E-3,-4.276053514E-3
2.908503250E-1,1.527161920E-3,5.650499370E-3,-6.108647794E-4
2.929755330E-1,3.054323897E-4,1.175914705E-2,-6.108647794E-4
2.951007420E-1,1.527161920E-3,4.428769462E-3,6.108647794E-4
2.972258980E-1,5.192350596E-3,3.207040019E-3,4.276053514E-3
2.993511060E-1,3.054323897E-4,-5.345067009E-3,4.276053514E-3
3.014763150E-1,-9.162971983E-4,-1.511890348E-2,6.108647794E-4
3.036015230E-1,3.054323897E-4,-2.244928107E-2,1.832594397E-3
3.057267310E-1,-4.581485875E-3,-1.756236330E-2,3.054323839E-3
3.078519400E-1,-8.246674202E-3,-6.566796452E-3,1.832594397E-3
3.099771480E-1,-9.468403645E-3,7.635809598E-4,5.497782957E-3
3.121023560E-1,-9.468403645E-3,1.985310577E-3,1.832594397E-3
3.142275650E-1,-9.468403645E-3,-1.679878100E-3,1.832594397E-3
3.163527730E-1,-9.468403645E-3,-1.511890348E-2,-1.832594397E-3
3.184779810E-1,-7.024944760E-3,-2.611446939E-2,-1.832594397E-3
3.206031900E-1,-3.359756200E-3,-2.000582218E-2,6.108647794E-4
3.227283980E-1,-3.359756200E-3,-1.389717404E-2,1.832594397E-3
3.248536060E-1,-4.581485875E-3,-1.267544460E-2,6.108647794E-4
3.269788150E-1,-2.138026757E-3,-2.901607659E-3,1.832594397E-3
3.291040230E-1,-7.024944760E-3,8.093958721E-3,1.832594397E-3
3.312292310E-1,-9.468403645E-3,1.298087649E-2,-3.054323839E-3
3.333544400E-1,-4.581485875E-3,1.053741761E-2,-3.054323839E-3
3.354796480E-1,-2.138026757E-3,-1.679878100E-3,1.832594397E-3
3.376048560E-1,-3.359756200E-3,-1.878409274E-2,6.108647794E-4
3.397300650E-1,-2.138026757E-3,-3.222311661E-2,6.108647794E-4
3.418552730E-1,-9.162971983E-4,-3.344484791E-2,-6.108647794E-4
3.439804810E-1,-9.162971983E-4,-2.000582218E-2,-1.832594397E-3
3.461056900E-1,-2.138026757E-3,-5.345067009E-3,-6.108647794E-4
3.482308980E-1,-9.162971983E-4,1.420260593E-2,-6.108647794E-4
3.503561060E-1,-2.138026757E-3,2.519817278E-2,6.108647794E-4
3.524813150E-1,-9.162971983E-4,1.786779426E-2,6.108647794E-4
3.546065230E-1,3.970621154E-3,-4.581485991E-4,6.108647794E-4
3.567317310E-1,7.635809947E-3,-5.345067009E-3,6.108647794E-4
3.588569400E-1,3.970621154E-3,-1.679878100E-3,3.054323839E-3
3.609821480E-1,1.527161920E-3,-6.566796452E-3,1.832594397E-3
3.631073040E-1,1.527161920E-3,-9.010255337E-3,1.832594397E-3
3.652325130E-1,-9.162971983E-4,-1.511890348E-2,3.054323839E-3
3.673577210E-1,-4.581485875E-3,-1.511890348E-2,6.108647794E-4
3.694829290E-1,-7.024944760E-3,-1.511890348E-2,-1.832594397E-3
3.716081380E-1,-5.803215317E-3,-9.010255337E-3,-1.832594397E-3
3.737333460E-1,-5.803215317E-3,-7.788525894E-3,6.108647794E-4
3.758585540E-1,-7.024944760E-3,-1.634063199E-2,1.832594397E-3
3.779837630E-1,-4.581485875E-3,-2.367101051E-2,6.108647794E-4
3.801089710E-1,-3.359756200E-3,-2.244928107E-2,-3.054323839E-3
3.822341790E-1,-4.581485875E-3,-1.389717404E-2,-4.276053514E-3
3.843593880E-1,-3.359756200E-3,7.635809598E-4,-1.832594397E-3
3.864845960E-1,-2.138026757E-3,1.175914705E-2,6.108647794E-4
3.886098040E-1,-2.138026757E-3,8.093958721E-3,1.832594397E-3
3.907350130E-1,-9.162971983E-4,-7.788525894E-3,-1.832594397E-3
3.928602210E-1,2.748891478E-3,-2.489273995E-2,6.108647794E-4
3.949854290E-1,1.527161920E-3,-2.611446939E-2,-6.108647794E-4
3.971106380E-1,-4.581485875E-3,-1.634063199E-2,-4.276053514E-3
3.992358460E-1,-5.803215317E-3,1.985310577E-3,-4.276053514E-3
4.013610540E-1,-4.581485875E-3,1.908952370E-2,-6.108647794E-4
4.034862630E-1,-7.024944760E-3,2.153298259E-2,-1.832594397E-3
4.056114710E-1,-4.581485875E-3,8.093958721E-3,-3.054323839E-3
4.077366790E-1,-2.138026757E-3,4.428769462E-3,-4.276053514E-3
4.098618880E-1,-4.581485875E-3,1.420260593E-2,-4.276053514E-3
4.119870960E-1,-5.803215317E-3,1.542433538E-2,-6.719512399E-3
4.141123040E-1,-3.359756200E-3,1.298087649E-2,-3.054323839E-3
4.162375130E-1,-2.138026757E-3,1.175914705E-2,1.832594397E-3
4.183626690E-1,-4.581485875E-3,-2.901607659E-3,-6.108647794E-4
4.204878770E-1,-2.138026757E-3,-1.756236330E-2,-1.832594397E-3
4.226130860E-1,1.527161920E-3,-2.855792828E-2,-6.108647794E-4
4.247382940E-1,-8.246674202E-3,-2.855792828E-2,-1.832594397E-3
4.268635020E-1,-8.246674202E-3,-1.145371422E-2,-6.108647794E-4
4.289887110E-1,-8.246674202E-3,4.428769462E-3,6.108647794E-4
4.311139190E-1,-9.468403645E-3,1.420260593E-2,1.832594397E-3
4.332391270E-1,-7.024944760E-3,-4.581485991E-4,-6.108647794E-4
4.353643360E-1,-4.581485875E-3,-1.878409274E-2,-4.276053514E-3
4.374895440E-1,-9.162971983E-4,-2.855792828E-2,-4.276053514E-3
4.396147520E-1,-2.138026757E-3,-1.756236330E-2,-3.054323839E-3
4.417399610E-1,-2.138026757E-3,-7.788525894E-3,-3.054323839E-3
4.438651690E-1,-4.581485875E-3,-7.788525894E-3,-1.832594397E-3
4.459903770E-1,-3.359756200E-3,-7.788525894E-3,6.108647794E-4
4.481155860E-1,-8.246674202E-3,-1.023198478E-2,-1.832594397E-3
4.502407420E-1,-5.803215317E-3,-1.145371422E-2,-6.719512399E-3
4.523660020E-1,-4.581485875E-3,-7.788525894E-3,-5.497782957E-3
4.544912110E-1,-5.803215317E-3,-1.023198478E-2,-3.054323839E-3
4.566164190E-1,-9.468403645E-3,-1.145371422E-2,-4.276053514E-3
4.587416270E-1,-8.246674202E-3,-1.756236330E-2,-3.054323839E-3
4.608668360E-1,-5.803215317E-3,-2.000582218E-2,-3.054323839E-3
4.629920440E-1,-2.138026757E-3,-1.756236330E-2,-4.276053514E-3
4.651172520E-1,-3.359756200E-3,-1.634063199E-2,-5.497782957E-3
4.672424610E-1,-3.359756200E-3,-5.345067009E-3,-4.276053514E-3
4.693676690E-1,-9.162971983E-4,1.053741761E-2,-4.276053514E-3
4.714928770E-1,3.054323897E-4,8.093958721E-3,-3.054323839E-3
4.736180330E-1,3.054323897E-4,-6.566796452E-3,-3.054323839E-3
4.757432940E-1,3.054323897E-4,-1.145371422E-2,-3.054323839E-3
4.778684500E-1,-9.162971983E-4,-1.145371422E-2,-4.276053514E-3
4.799936580E-1,-3.359756200E-3,-9.010255337E-3,-3.054323839E-3
4.821188670E-1,-4.581485875E-3,-4.581485991E-4,-1.832594397E-3
4.842440750E-1,-8.246674202E-3,3.207040019E-3,-6.108647794E-4
4.863692830E-1,-1.191186346E-2,-1.679878100E-3,-3.054323839E-3
4.884944920E-1,-1.313359290E-2,-6.566796452E-3,-3.054323839E-3
4.906197000E-1,-1.069013402E-2,-7.788525894E-3,-4.276053514E-3
4.927449080E-1,-1.191186346E-2,-1.511890348E-2,-3.054323839E-3
4.948701170E-1,-7.024944760E-3,-2.733619884E-2,-1.832594397E-3
4.969953250E-1,-5.803215317E-3,-2.855792828E-2,-3.054323839E-3
4.991205330E-1,-2.138026757E-3,-2.367101051E-2,-6.108647794E-4
5.012457420E-1,-3.359756200E-3,-2.244928107E-2,-4.276053514E-3
5.033709500E-1,3.054323897E-4,-1.267544460E-2,-4.276053514E-3
5.054961580E-1,-3.359756200E-3,3.207040019E-3,-1.832594397E-3
5.076213670E-1,-7.024944760E-3,1.985310577E-3,-3.054323839E-3
5.097465750E-1,-3.359756200E-3,-1.023198478E-2,-1.832594397E-3
5.118717830E-1,-2.138026757E-3,-1.756236330E-2,-1.832594397E-3
5.139969920E-1,-5.803215317E-3,-1.511890348E-2,-6.108647794E-4
5.161222000E-1,-1.069013402E-2,-9.010255337E-3,-3.054323839E-3
5.182474080E-1,-8.246674202E-3,-2.901607659E-3,-3.054323839E-3
5.203726170E-1,-7.024944760E-3,5.650499370E-3,-5.497782957E-3
5.224978250E-1,-5.803215317E-3,3.207040019E-3,-4.276053514E-3
5.246230330E-1,-7.024944760E-3,-1.023198478E-2,-6.719512399E-3
5.267482420E-1,-4.581485875E-3,-9.010255337E-3,-7.941242307E-3
5.288734500E-1,-7.024944760E-3,5.650499370E-3,-9.162971750E-3
5.309986580E-1,-9.468403645E-3,1.420260593E-2,-7.941242307E-3
5.331238670E-1,-7.024944760E-3,1.908952370E-2,-5.497782957E-3
5.352490750E-1,-5.803215317E-3,2.031125315E-2,-1.832594397E-3
5.373742310E-1,-9.468403645E-3,1.053741761E-2,-1.832594397E-3
5.394994920E-1,-3.359756200E-3,-9.010255337E-3,-4.276053514E-3
5.416246480E-1,-9.162971983E-4,-1.634063199E-2,-3.054323839E-3
5.437498560E-1,-9.468403645E-3,-9.010255337E-3,-3.054323839E-3
5.458750650E-1,-1.191186346E-2,-4.581485991E-4,-3.054323839E-3
5.480002730E-1,-1.069013402E-2,3.207040019E-3,-6.108647794E-4
5.501254810E-1,-9.468403645E-3,3.207040019E-3,6.108647794E-4
5.522506900E-1,-8.246674202E-3,-9.010255337E-3,-6.108647794E-4
5.543758980E-1,-7.024944760E-3,-2.855792828E-2,-3.054323839E-3
5.565011060E-1,-5.803215317E-3,-2.855792828E-2,-5.497782957E-3
5.586263150E-1,-7.024944760E-3,-1.389717404E-2,-5.497782957E-3
5.607515230E-1,-9.468403645E-3,1.985310577E-3,-5.497782957E-3
5.628767310E-1,-8.246674202E-3,8.093958721E-3,-3.054323839E-3
5.650019400E-1,-9.468403645E-3,5.650499370E-3,-3.054323839E-3
5.671271480E-1,-9.468403645E-3,-5.345067009E-3,-3.054323839E-3
5.692523560E-1,-7.024944760E-3,-9.010255337E-3,-6.719512399E-3
5.713775650E-1,-5.803215317E-3,-1.023198478E-2,-6.719512399E-3
5.735027730E-1,-1.069013402E-2,-7.788525894E-3,-5.497782957E-3
5.756279810E-1,-1.191186346E-2,-6.566796452E-3,-3.054323839E-3
5.777531900E-1,-8.246674202E-3,-4.123337101E-3,-3.054323839E-3
5.798783980E-1,-5.803215317E-3,-6.566796452E-3,-4.276053514E-3
5.820036060E-1,-5.803215317E-3,-9.010255337E-3,-6.719512399E-3
5.841288150E-1,-5.803215317E-3,-7.788525894E-3,-7.941242307E-3
5.862540230E-1,3.054323897E-4,8.093958721E-3,-6.719512399E-3
5.883792310E-1,-9.162971983E-4,1.175914705E-2,-6.719512399E-3
5.905044400E-1,-9.162971983E-4,8.093958721E-3,-6.719512399E-3
5.926296480E-1,2.748891478E-3,7.635809598E-4,-4.276053514E-3
5.947548560E-1,3.054323897E-4,-2.901607659E-3,-6.719512399E-3
5.968800650E-1,3.054323897E-4,-4.123337101E-3,-6.719512399E-3
5.990052210E-1,-9.162971983E-4,1.985310577E-3,-6.719512399E-3
6.011304290E-1,-3.359756200E-3,1.053741761E-2,-5.497782957E-3
6.032556380E-1,-5.803215317E-3,1.542433538E-2,-4.276053514E-3
6.053808460E-1,-7.024944760E-3,1.053741761E-2,-5.497782957E-3
6.075060540E-1,-4.581485875E-3,5.650499370E-3,-5.497782957E-3
6.096312630E-1,-4.581485875E-3,5.650499370E-3,-7.941242307E-3
6.117564710E-1,-4.581485875E-3,-4.581485991E-4,-5.497782957E-3
6.138816790E-1,-3.359756200E-3,-7.788525894E-3,-6.719512399E-3
6.160068880E-1,-2.138026757E-3,-2.901607659E-3,-6.719512399E-3
6.181320960E-1,-9.162971983E-4,7.635809598E-4,-6.719512399E-3
6.202573040E-1,-3.359756200E-3,7.635809598E-4,-7.941242307E-3
6.223825130E-1,3.054323897E-4,9.315688163E-3,-6.719512399E-3
6.245077210E-1,-4.581485875E-3,1.664606482E-2,-5.497782957E-3
6.266329290E-1,-4.581485875E-3,1.420260593E-2,-6.719512399E-3
6.287581380E-1,-9.162971983E-4,6.872228812E-3,-6.719512399E-3
6.308833460E-1,-9.162971983E-4,6.872228812E-3,-5.497782957E-3
6.330085540E-1,-7.024944760E-3,1.175914705E-2,-4.276053514E-3
6.351337630E-1,-7.024944760E-3,1.420260593E-2,-7.941242307E-3
6.372589710E-1,-7.024944760E-3,1.542433538E-2,-7.941242307E-3
6.393841790E-1,-5.803215317E-3,2.031125315E-2,-7.941242307E-3
6.415093880E-1,-7.024944760E-3,1.298087649E-2,-6.719512399E-3
6.436345960E-1,-4.581485875E-3,5.650499370E-3,-7.941242307E-3
6.457598040E-1,-2.138026757E-3,1.542433538E-2,-9.162971750E-3
6.478850130E-1,-7.024944760E-3,2.519817278E-2,-9.162971750E-3
6.500102210E-1,-5.803215317E-3,2.641990222E-2,-1.038470119E-2
6.521354290E-1,-4.581485875E-3,2.641990222E-2,-7.941242307E-3
6.542606380E-1,-7.024944760E-3,2.764163166E-2,-5.497782957E-3
6.563858460E-1,-8.246674202E-3,1.908952370E-2,-4.276053514E-3
6.585110540E-1,-4.581485875E-3,3.207040019E-3,-4.276053514E-3
6.606362110E-1,-4.581485875E-3,-2.901607659E-3,-3.054323839E-3
6.627614190E-1,-1.069013402E-2,1.985310577E-3,-3.054323839E-3
6.648866790E-1,-1.191186346E-2,9.315688163E-3,-1.832594397E-3
6.670118360E-1,-1.191186346E-2,1.420260593E-2,6.108647794E-4
6.691370440E-1,-1.069013402E-2,1.542433538E-2,1.832594397E-3
6.712622520E-1,-8.246674202E-3,-2.901607659E-3,-6.108647794E-4
6.733874610E-1,-4.581485875E-3,-2.244928107E-2,-4.276053514E-3
6.755126690E-1,-9.162971983E-4,-1.511890348E-2,-4.276053514E-3
6.776378770E-1,-5.803215317E-3,-2.901607659E-3,-5.497782957E-3
6.797630860E-1,-2.138026757E-3,1.985310577E-3,-5.497782957E-3
6.818882940E-1,-2.138026757E-3,6.872228812E-3,-3.054323839E-3
6.840135020E-1,-4.581485875E-3,6.872228812E-3,-1.832594397E-3
6.861387110E-1,-5.803215317E-3,-5.345067009E-3,-6.108647794E-4
6.882639190E-1,-5.803215317E-3,-1.023198478E-2,-5.497782957E-3
6.903891270E-1,-7.024944760E-3,-2.901607659E-3,-5.497782957E-3
6.925143360E-1,-1.069013402E-2,9.315688163E-3,-4.276053514E-3
6.946395440E-1,-1.069013402E-2,1.053741761E-2,-3.054323839E-3
6.967647520E-1,-5.803215317E-3,5.650499370E-3,-6.108647794E-4
6.988899610E-1,-3.359756200E-3,-2.901607659E-3,-4.276053514E-3
7.010151690E-1,-2.138026757E-3,-7.788525894E-3,-7.941242307E-3
7.031403770E-1,-2.138026757E-3,-1.679878100E-3,-1.038470119E-2
7.052655860E-1,3.054323897E-4,1.175914705E-2,-9.162971750E-3
7.073907940E-1,3.054323897E-4,2.153298259E-2,-9.162971750E-3
7.095160020E-1,1.527161920E-3,1.786779426E-2,-7.941242307E-3
7.116412110E-1,2.748891478E-3,1.053741761E-2,-6.719512399E-3
7.137664190E-1,1.527161920E-3,1.985310577E-3,-6.719512399E-3
7.158916270E-1,1.527161920E-3,7.635809598E-4,-9.162971750E-3
7.180168360E-1,3.054323897E-4,5.650499370E-3,-7.941242307E-3
7.201420440E-1,-2.138026757E-3,1.298087649E-2,-5.497782957E-3
7.222672520E-1,-3.359756200E-3,1.298087649E-2,-4.276053514E-3
7.243924610E-1,-5.803215317E-3,5.650499370E-3,-4.276053514E-3
7.265176690E-1,-3.359756200E-3,6.872228812E-3,-5.497782957E-3
7.286428770E-1,-2.138026757E-3,6.872228812E-3,-6.719512399E-3
7.307680330E-1,-5.803215317E-3,1.985310577E-3,-9.162971750E-3
7.328932420E-1,-2.138026757E-3,4.428769462E-3,-6.719512399E-3
7.350184500E-1,-9.162971983E-4,8.093958721E-3,-6.719512399E-3
7.371436580E-1,3.054323897E-4,5.650499370E-3,-7.941242307E-3
7.392688670E-1,1.527161920E-3,-4.123337101E-3,-7.941242307E-3
7.413940750E-1,3.970621154E-3,-1.679878100E-3,-6.719512399E-3
7.435192830E-1,2.748891478E-3,7.635809598E-4,-7.941242307E-3
7.456444920E-1,1.527161920E-3,-4.123337101E-3,-9.162971750E-3
7.477697000E-1,3.970621154E-3,-6.566796452E-3,-5.497782957E-3
7.498949080E-1,2.748891478E-3,-7.788525894E-3,-3.054323839E-3
7.520201170E-1,3.054323897E-4,-5.345067009E-3,-4.276053514E-3
7.541453250E-1,-2.138026757E-3,-2.901607659E-3,-4.276053514E-3
7.562705330E-1,3.054323897E-4,9.315688163E-3,-6.719512399E-3
7.583957420E-1,-9.162971983E-4,1.542433538E-2,-6.719512399E-3
7.605209500E-1,-2.138026757E-3,9.315688163E-3,-5.497782957E-3
7.626461580E-1,2.748891478E-3,7.635809598E-4,-6.719512399E-3
7.647713670E-1,5.192350596E-3,7.635809598E-4,-6.719512399E-3
7.668965750E-1,5.192350596E-3,-1.679878100E-3,-6.719512399E-3
7.690217830E-1,2.748891478E-3,-2.901607659E-3,-7.941242307E-3
7.711469920E-1,3.970621154E-3,7.635809598E-4,-4.276053514E-3
7.732722000E-1,3.054323897E-4,8.093958721E-3,-3.054323839E-3
7.753974080E-1,3.054323897E-4,8.093958721E-3,-1.832594397E-3
7.775226170E-1,1.527161920E-3,-1.679878100E-3,-6.108647794E-4
7.796478250E-1,3.054323897E-4,-1.679878100E-3,6.108647794E-4
7.817730330E-1,-3.359756200E-3,4.428769462E-3,6.108647794E-4
7.838982420E-1,-5.803215317E-3,1.053741761E-2,-1.832594397E-3
7.860234500E-1,-3.359756200E-3,1.175914705E-2,-6.108647794E-4
7.881486580E-1,-2.138026757E-3,4.428769462E-3,-1.832594397E-3
7.902738670E-1,-9.162971983E-4,-1.267544460E-2,-1.832594397E-3
7.923990750E-1,-9.162971983E-4,-2.611446939E-2,-4.276053514E-3
7.945242830E-1,2.748891478E-3,-2.244928107E-2,-5.497782957E-3
7.966494400E-1,2.748891478E-3,-1.023198478E-2,-6.719512399E-3
7.987746480E-1,2.748891478E-3,-2.901607659E-3,-9.162971750E-3
8.008998560E-1,3.970621154E-3,3.207040019E-3,-5.497782957E-3
8.030250650E-1,2.748891478E-3,1.985310577E-3,-3.054323839E-3
8.051502730E-1,6.414080039E-3,-4.123337101E-3,-4.276053514E-3
8.072754810E-1,6.414080039E-3,-6.566796452E-3,-7.941242307E-3
8.094006900E-1,2.748891478E-3,-1.679878100E-3,-6.719512399E-3
8.115258980E-1,-9.162971983E-4,1.420260593E-2,-7.941242307E-3
8.136511060E-1,-9.162971983E-4,1.908952370E-2,-6.719512399E-3
8.157763150E-1,2.748891478E-3,1.786779426E-2,-6.719512399E-3
8.179015230E-1,3.970621154E-3,8.093958721E-3,-5.497782957E-3
8.200267310E-1,6.414080039E-3,-4.123337101E-3,-9.162971750E-3
8.221519400E-1,6.414080039E-3,-2.901607659E-3,-1.160643063E-2
8.242771480E-1,7.635809947E-3,5.650499370E-3,-1.160643063E-2
8.264023560E-1,7.635809947E-3,1.053741761E-2,-1.038470119E-2
8.285275650E-1,1.007926930E-2,1.053741761E-2,-7.941242307E-3
8.306527730E-1,1.007926930E-2,1.420260593E-2,-6.719512399E-3
8.327779810E-1,8.857538924E-3,1.053741761E-2,-6.719512399E-3
8.349031900E-1,1.007926930E-2,6.872228812E-3,-9.162971750E-3
8.370283980E-1,1.007926930E-2,1.985310577E-3,-1.038470119E-2
8.391536060E-1,8.857538924E-3,6.872228812E-3,-6.719512399E-3
8.412788150E-1,3.970621154E-3,3.207040019E-3,-5.497782957E-3
8.434040230E-1,5.192350596E-3,-2.901607659E-3,-6.719512399E-3
8.455292310E-1,7.635809947E-3,-1.679878100E-3,-6.719512399E-3
8.476544400E-1,7.635809947E-3,-2.901607659E-3,-9.162971750E-3
8.497796480E-1,5.192350596E-3,-7.788525894E-3,-1.038470119E-2
8.519048560E-1,7.635809947E-3,-9.010255337E-3,-1.160643063E-2
8.540300650E-1,1.007926930E-2,-2.901607659E-3,-9.162971750E-3
8.561552730E-1,7.635809947E-3,-1.679878100E-3,-1.038470119E-2
8.582804810E-1,1.252272818E-2,-1.679878100E-3,-7.941242307E-3
8.604056900E-1,1.374445762E-2,7.635809598E-4,-9.162971750E-3
8.625308980E-1,1.252272818E-2,-1.679878100E-3,-1.160643063E-2
8.646561060E-1,1.252272818E-2,-6.566796452E-3,-1.160643063E-2
8.667813150E-1,1.374445762E-2,-7.788525894E-3,-1.038470119E-2
8.689064710E-1,1.252272818E-2,-4.123337101E-3,-9.162971750E-3
8.710317310E-1,1.130099874E-2,-1.679878100E-3,-1.038470119E-2
8.731568880E-1,8.857538924E-3,3.207040019E-3,-1.038470119E-2
8.752820960E-1,1.007926930E-2,9.315688163E-3,-1.282816008E-2
8.774073040E-1,8.857538924E-3,3.207040019E-3,-1.282816008E-2
8.795325130E-1,1.130099874E-2,-4.123337101E-3,-1.160643063E-2
8.816577210E-1,1.252272818E-2,6.872228812E-3,-1.282816008E-2
8.837829290E-1,1.007926930E-2,1.908952370E-2,-1.038470119E-2
8.859081380E-1,1.007926930E-2,2.031125315E-2,-1.282816008E-2
8.880333460E-1,1.374445762E-2,1.908952370E-2,-1.282816008E-2
8.901585540E-1,1.007926930E-2,1.908952370E-2,-1.038470119E-2
8.922837630E-1,1.007926930E-2,8.093958721E-3,-1.038470119E-2
8.944089710E-1,1.496618707E-2,-7.788525894E-3,-9.162971750E-3
8.965341790E-1,1.252272818E-2,-1.511890348E-2,-7.941242307E-3
8.986593880E-1,5.192350596E-3,-1.023198478E-2,-9.162971750E-3
9.007845960E-1,3.970621154E-3,-4.581485991E-4,-1.038470119E-2
9.029098040E-1,1.527161920E-3,1.053741761E-2,-1.038470119E-2
9.050350130E-1,2.748891478E-3,1.908952370E-2,-1.038470119E-2
9.071602210E-1,3.970621154E-3,1.175914705E-2,-7.941242307E-3
9.092854290E-1,8.857538924E-3,-1.389717404E-2,-1.038470119E-2
9.114106380E-1,1.496618707E-2,-2.977965772E-2,-9.162971750E-3
9.135358460E-1,1.252272818E-2,-2.244928107E-2,-1.038470119E-2
9.156610540E-1,7.635809947E-3,-7.788525894E-3,-1.282816008E-2
9.177862630E-1,1.007926930E-2,4.428769462E-3,-1.282816008E-2
9.199114710E-1,8.857538924E-3,4.428769462E-3,-7.941242307E-3
9.220366790E-1,7.635809947E-3,-7.788525894E-3,-7.941242307E-3
9.241618880E-1,1.252272818E-2,-2.122755162E-2,-1.038470119E-2
9.262870960E-1,1.130099874E-2,-2.000582218E-2,-1.038470119E-2
9.284123040E-1,6.414080039E-3,-5.345067009E-3,-1.282816008E-2
9.305375130E-1,5.192350596E-3,8.093958721E-3,-1.282816008E-2
9.326627210E-1,5.192350596E-3,1.542433538E-2,-1.160643063E-2
9.347879290E-1,3.970621154E-3,1.420260593E-2,-1.038470119E-2
9.369197520E-1,6.414080039E-3,1.985310577E-3,-1.038470119E-2
9.390383460E-1,8.857538924E-3,-1.023198478E-2,-1.282816008E-2
9.411635540E-1,1.130099874E-2,1.985310577E-3,-1.160643063E-2
9.432887630E-1,8.857538924E-3,1.298087649E-2,-1.404988952E-2
9.454139710E-1,1.130099874E-2,1.175914705E-2,-1.160643063E-2
9.475391270E-1,1.374445762E-2,6.872228812E-3,-9.162971750E-3
9.496643360E-1,1.252272818E-2,-4.123337101E-3,-6.719512399E-3
9.517895960E-1,1.374445762E-2,-1.878409274E-2,-7.941242307E-3
9.539148040E-1,1.130099874E-2,-1.756236330E-2,-9.162971750E-3
9.560399610E-1,8.857538924E-3,-2.901607659E-3,-1.160643063E-2
9.581651690E-1,1.527161920E-3,8.093958721E-3,-9.162971750E-3
9.602903770E-1,2.748891478E-3,8.093958721E-3,-1.038470119E-2
9.624155860E-1,1.527161920E-3,3.207040019E-3,-9.162971750E-3
9.645407940E-1,2.748891478E-3,-4.581485991E-4,-9.162971750E-3
9.666660020E-1,2.748891478E-3,-9.010255337E-3,-1.038470119E-2
9.687912110E-1,3.054323897E-4,-1.634063199E-2,-1.404988952E-2
9.709164190E-1,3.054323897E-4,-1.145371422E-2,-1.282816008E-2
9.730416270E-1,3.054323897E-4,7.635809598E-4,-1.160643063E-2
9.751668360E-1,3.054323897E-4,-4.581485991E-4,-1.160643063E-2
9.772920440E-1,2.748891478E-3,-7.788525894E-3,-1.038470119E-2
9.794172520E-1,3.970621154E-3,-6.566796452E-3,-1.038470119E-2
9.815424610E-1,3.970621154E-3,-2.901607659E-3,-1.282816008E-2
9.836676690E-1,5.192350596E-3,-2.901607659E-3,-1.282816008E-2
9.857928770E-1,2.748891478E-3,1.985310577E-3,-1.160643063E-2
9.879180860E-1,1.527161920E-3,1.985310577E-3,-1.160643063E-2
9.900432940E-1,1.527161920E-3,-2.901607659E-3,-1.038470119E-2
9.921685020E-1,3.970621154E-3,-6.566796452E-3,-1.038470119E-2
9.942937110E-1,1.527161920E-3,-4.123337101E-3,-1.404988952E-2
9.964188670E-1,3.054323897E-4,-4.123337101E-3,-1.282816008E-2
9.985441270E-1,3.054323897E-4,-1.679878100E-3,-1.038470119E-2
1.000669336E0,1.527161920E-3,8.093958721E-3,-1.160643063E-2
1.002794544E0,1.527161920E-3,4.428769462E-3,-1.038470119E-2
1.004919752E0,3.970621154E-3,-5.345067009E-3,-1.038470119E-2
1.007044961E0,6.414080039E-3,-1.023198478E-2,-7.941242307E-3
1.009170169E0,3.054323897E-4,-1.023198478E-2,-7.941242307E-3
1.011295377E0,3.054323897E-4,-1.267544460E-2,-7.941242307E-3
1.013420586E0,1.527161920E-3,-2.000582218E-2,-6.719512399E-3
1.015545794E0,1.527161920E-3,-2.367101051E-2,-5.497782957E-3
1.017671002E0,-4.581485875E-3,-2.489273995E-2,-6.719512399E-3
1.019796211E0,-7.024944760E-3,-2.122755162E-2,-6.719512399E-3
1.021921419E0,-8.246674202E-3,-1.511890348E-2,-6.719512399E-3
1.024046627E0,-9.468403645E-3,-6.566796452E-3,-6.719512399E-3
1.026171836E0,-8.246674202E-3,-1.267544460E-2,-6.719512399E-3
1.028296992E0,-9.468403645E-3,-3.100138716E-2,-7.941242307E-3
1.030422200E0,-4.581485875E-3,-3.833176568E-2,-7.941242307E-3
1.032547408E0,-5.803215317E-3,-3.466657549E-2,-7.941242307E-3
1.034672669E0,-7.024944760E-3,-2.000582218E-2,-1.160643063E-2
1.036797877E0,-7.024944760E-3,-1.267544460E-2,-9.162971750E-3
1.038923033E0,-1.069013402E-2,-5.345067009E-3,-7.941242307E-3
1.041048242E0,-8.246674202E-3,-1.267544460E-2,-6.719512399E-3
1.043173450E0,-5.803215317E-3,-2.367101051E-2,-9.162971750E-3
1.045298658E0,-4.581485875E-3,-2.855792828E-2,-9.162971750E-3
1.047423867E0,-8.246674202E-3,-2.244928107E-2,-1.160643063E-2
1.049549075E0,-1.313359290E-2,-1.389717404E-2,-1.160643063E-2
1.051674283E0,-1.191186346E-2,-1.679878100E-3,-1.038470119E-2
1.053799492E0,-1.313359290E-2,7.635809598E-4,-9.162971750E-3
1.055924700E0,-1.191186346E-2,-2.901607659E-3,-9.162971750E-3
1.058049908E0,-8.246674202E-3,-4.123337101E-3,-1.160643063E-2
1.060175117E0,-8.246674202E-3,7.635809598E-4,-1.160643063E-2
1.062300325E0,-5.803215317E-3,1.298087649E-2,-1.404988952E-2
1.064425533E0,-5.803215317E-3,1.175914705E-2,-1.160643063E-2
1.066550742E0,-2.138026757E-3,3.207040019E-3,-9.162971750E-3
1.068675950E0,-9.162971983E-4,-9.010255337E-3,-7.941242307E-3
1.070801158E0,-2.138026757E-3,-1.756236330E-2,-7.941242307E-3
1.072926367E0,-7.024944760E-3,-1.878409274E-2,-9.162971750E-3
1.075051575E0,-9.468403645E-3,-5.345067009E-3,-1.038470119E-2
1.077176783E0,-1.802051067E-2,1.175914705E-2,-9.162971750E-3
1.079301992E0,-1.924224012E-2,1.542433538E-2,-7.941242307E-3
1.081427200E0,-1.557705179E-2,1.053741761E-2,-6.719512399E-3
1.083552408E0,-1.435532235E-2,-1.679878100E-3,-6.719512399E-3
1.085677617E0,-1.313359290E-2,-1.634063199E-2,-9.162971750E-3
1.087802825E0,-1.557705179E-2,-2.000582218E-2,-1.038470119E-2
1.089928033E0,-1.679878123E-2,-7.788525894E-3,-1.160643063E-2
1.092053242E0,-1.802051067E-2,6.872228812E-3,-1.038470119E-2
1.094178450E0,-1.679878123E-2,6.872228812E-3,-1.038470119E-2
1.096303658E0,-1.069013402E-2,-1.679878100E-3,-9.162971750E-3
1.098428867E0,-9.468403645E-3,-9.010255337E-3,-7.941242307E-3
1.100554075E0,-9.468403645E-3,-1.511890348E-2,-1.160643063E-2
1.102679283E0,-1.069013402E-2,-1.023198478E-2,-1.160643063E-2
1.104804492E0,-1.191186346E-2,3.207040019E-3,-1.160643063E-2
1.106929700E0,-1.557705179E-2,1.053741761E-2,-9.162971750E-3
1.109054908E0,-1.557705179E-2,4.428769462E-3,-9.162971750E-3
1.111180065E0,-1.557705179E-2,1.985310577E-3,-9.162971750E-3
1.113305325E0,-1.557705179E-2,1.053741761E-2,-1.160643063E-2
1.115430533E0,-1.802051067E-2,1.420260593E-2,-1.282816008E-2
1.117555742E0,-1.924224012E-2,1.908952370E-2,-1.282816008E-2
1.119680846E0,-1.802051067E-2,2.275471389E-2,-1.160643063E-2
1.121806158E0,-1.557705179E-2,2.031125315E-2,-1.038470119E-2
1.123931367E0,-1.313359290E-2,5.650499370E-3,-1.038470119E-2
1.126056523E0,-1.069013402E-2,-1.679878100E-3,-1.038470119E-2
1.128181731E0,-1.435532235E-2,-2.901607659E-3,-9.162971750E-3
1.130306940E0,-1.557705179E-2,-2.901607659E-3,-9.162971750E-3
1.132432148E0,-1.557705179E-2,-4.581485991E-4,-7.941242307E-3
1.134557304E0,-1.802051067E-2,3.207040019E-3,-5.497782957E-3
1.136682565E0,-2.046396956E-2,1.985310577E-3,-4.276053514E-3
1.138807773E0,-2.168569900E-2,4.428769462E-3,-5.497782957E-3
1.140932981E0,-2.168569900E-2,3.207040019E-3,-4.276053514E-3
1.143058190E0,-1.924224012E-2,-4.581485991E-4,-5.497782957E-3
1.145183398E0,-1.679878123E-2,-7.788525894E-3,-5.497782957E-3
1.147308606E0,-1.679878123E-2,-1.634063199E-2,-5.497782957E-3
1.149433815E0,-1.679878123E-2,-1.511890348E-2,-6.719512399E-3
1.151559023E0,-1.679878123E-2,-9.010255337E-3,-7.941242307E-3
1.153684231E0,-1.679878123E-2,-4.581485991E-4,-1.038470119E-2
1.155809440E0,-1.679878123E-2,4.428769462E-3,-1.038470119E-2
1.157934648E0,-1.802051067E-2,3.207040019E-3,-6.719512399E-3
1.160059856E0,-1.679878123E-2,-2.901607659E-3,-7.941242307E-3
1.162185065E0,-1.557705179E-2,-9.010255337E-3,-6.719512399E-3
1.164310273E0,-1.802051067E-2,-5.345067009E-3,-7.941242307E-3
1.166435429E0,-2.168569900E-2,6.872228812E-3,-9.162971750E-3
1.168560690E0,-2.412915789E-2,1.786779426E-2,-1.160643063E-2
1.170685898E0,-2.168569900E-2,2.031125315E-2,-9.162971750E-3
1.172811106E0,-2.168569900E-2,2.153298259E-2,-7.941242307E-3
1.174936315E0,-1.802051067E-2,1.175914705E-2,-9.162971750E-3
1.177061523E0,-1.557705179E-2,4.428769462E-3,-1.038470119E-2
1.179186731E0,-1.557705179E-2,1.420260593E-2,-1.160643063E-2
1.181311940E0,-1.679878123E-2,2.886336111E-2,-1.282816008E-2
1.183437148E0,-1.435532235E-2,2.031125315E-2,-1.404988952E-2
1.185562356E0,-9.468403645E-3,5.650499370E-3,-1.160643063E-2
1.187687565E0,-7.024944760E-3,-5.345067009E-3,-9.162971750E-3
1.189812773E0,-1.069013402E-2,-7.788525894E-3,-7.941242307E-3
1.191937981E0,-1.191186346E-2,-4.123337101E-3,-1.038470119E-2
1.194063190E0,-1.679878123E-2,1.053741761E-2,-1.038470119E-2
1.196188398E0,-2.290742844E-2,2.275471389E-2,-1.038470119E-2
1.198313606E0,-1.924224012E-2,1.786779426E-2,-9.162971750E-3
1.200438815E0,-1.802051067E-2,6.872228812E-3,-1.038470119E-2
1.202564023E0,-1.435532235E-2,-7.788525894E-3,-1.038470119E-2
1.204689231E0,-1.435532235E-2,-1.267544460E-2,-1.038470119E-2
1.206814440E0,-1.802051067E-2,-1.679878100E-3,-1.160643063E-2
1.208939596E0,-2.046396956E-2,1.664606482E-2,-1.282816008E-2
1.211064804E0,-1.679878123E-2,2.397644334E-2,-1.160643063E-2
1.213190065E0,-1.191186346E-2,1.298087649E-2,-1.160643063E-2
1.215315273E0,-7.024944760E-3,-7.788525894E-3,-1.160643063E-2
1.217440429E0,-5.803215317E-3,-2.244928107E-2,-1.282816008E-2
1.219565690E0,-7.024944760E-3,-2.000582218E-2,-1.282816008E-2
1.221690898E0,-1.191186346E-2,-6.566796452E-3,-1.527161989E-2
1.223816054E0,-1.313359290E-2,1.053741761E-2,-1.527161989E-2
1.225941263E0,-1.557705179E-2,1.420260593E-2,-1.160643063E-2
1.228066471E0,-1.435532235E-2,6.872228812E-3,-1.282816008E-2
1.230191679E0,-1.435532235E-2,-1.679878100E-3,-1.282816008E-2
1.232316888E0,-1.191186346E-2,-2.901607659E-3,-1.404988952E-2
1.234442096E0,-1.435532235E-2,4.428769462E-3,-1.527161989E-2
1.236567304E0,-1.679878123E-2,1.542433538E-2,-1.771507785E-2
1.238692513E0,-1.435532235E-2,2.153298259E-2,-1.649334840E-2
1.240817721E0,-1.313359290E-2,2.031125315E-2,-1.527161989E-2
1.242942929E0,-5.803215317E-3,1.053741761E-2,-1.404988952E-2
1.245068138E0,-4.581485875E-3,-1.145371422E-2,-1.404988952E-2
1.247193346E0,-2.138026757E-3,-1.511890348E-2,-1.160643063E-2
1.249318554E0,-7.024944760E-3,-9.010255337E-3,-1.160643063E-2
1.251443763E0,-1.313359290E-2,-4.123337101E-3,-1.038470119E-2
1.253568971E0,-1.313359290E-2,4.428769462E-3,-7.941242307E-3
1.255694179E0,-1.435532235E-2,1.053741761E-2,-7.941242307E-3
1.257819388E0,-1.435532235E-2,6.872228812E-3,-1.038470119E-2
1.259944596E0,-1.679878123E-2,5.650499370E-3,-1.160643063E-2
1.262069804E0,-1.313359290E-2,6.872228812E-3,-1.038470119E-2
1.264195013E0,-1.313359290E-2,4.428769462E-3,-1.282816008E-2
1.266320221E0,-1.313359290E-2,-9.010255337E-3,-1.160643063E-2
1.268445429E0,-8.246674202E-3,-1.389717404E-2,-9.162971750E-3
1.270570638E0,-9.468403645E-3,-1.756236330E-2,-1.282816008E-2
1.272695846E0,-1.069013402E-2,-7.788525894E-3,-1.404988952E-2
1.274821054E0,-1.435532235E-2,7.635809598E-4,-1.527161989E-2
1.276946263E0,-1.557705179E-2,5.650499370E-3,-1.282816008E-2
1.279071471E0,-1.435532235E-2,-2.901607659E-3,-1.282816008E-2
1.281196679E0,-8.246674202E-3,-1.267544460E-2,-1.282816008E-2
1.283321888E0,-9.468403645E-3,-1.145371422E-2,-1.160643063E-2
1.285447096E0,-1.313359290E-2,4.428769462E-3,-1.282816008E-2
1.287572304E0,-1.557705179E-2,1.542433538E-2,-1.282816008E-2
1.289697513E0,-1.679878123E-2,1.175914705E-2,-1.282816008E-2
1.291822721E0,-1.191186346E-2,-1.679878100E-3,-1.282816008E-2
1.293947929E0,-7.024944760E-3,-1.389717404E-2,-1.160643063E-2
1.296073138E0,-4.581485875E-3,-2.244928107E-2,-1.282816008E-2
1.298198346E0,-5.803215317E-3,-5.345067009E-3,-1.404988952E-2
1.300323554E0,-7.024944760E-3,1.664606482E-2,-1.527161989E-2
1.302448763E0,-5.803215317E-3,1.664606482E-2,-1.527161989E-2
1.304573971E0,-9.162971983E-4,9.315688163E-3,-1.282816008E-2
1.306699179E0,3.054323897E-4,-5.345067009E-3,-1.038470119E-2
1.308824388E0,2.748891478E-3,-2.244928107E-2,-1.038470119E-2
1.310949596E0,-9.162971983E-4,-1.878409274E-2,-1.282816008E-2
1.313074804E0,-4.581485875E-3,-4.581485991E-4,-1.282816008E-2
1.315200013E0,-1.191186346E-2,1.420260593E-2,-1.527161989E-2
1.317325221E0,-1.191186346E-2,1.664606482E-2,-1.404988952E-2
1.319450377E0,-9.468403645E-3,6.872228812E-3,-1.404988952E-2
1.321575638E0,-8.246674202E-3,-1.023198478E-2,-1.282816008E-2
1.323700794E0,-8.246674202E-3,-1.756236330E-2,-1.404988952E-2
1.325826054E0,-9.468403645E-3,-4.123337101E-3,-1.649334840E-2
1.327951211E0,-1.069013402E-2,1.175914705E-2,-1.893680729E-2
1.330076471E0,-9.468403645E-3,2.153298259E-2,-1.893680729E-2
1.332201627E0,-4.581485875E-3,1.420260593E-2,-1.771507785E-2
1.334326888E0,-9.162971983E-4,-5.345067009E-3,-1.649334840E-2
1.336452044E0,2.748891478E-3,-2.489273995E-2,-1.649334840E-2
1.338577252E0,3.970621154E-3,-2.977965772E-2,-1.893680729E-2
1.340702461E0,1.527161920E-3,-1.511890348E-2,-1.893680729E-2
1.342827669E0,-2.138026757E-3,4.428769462E-3,-2.015853859E-2
1.344952877E0,-4.581485875E-3,1.053741761E-2,-1.771507785E-2
1.347078086E0,-9.162971983E-4,-2.901607659E-3,-1.527161989E-2
1.349203346E0,1.527161920E-3,-1.756236330E-2,-1.771507785E-2
1.351328502E0,3.054323897E-4,-1.878409274E-2,-1.893680729E-2
1.353453711E0,-2.138026757E-3,-1.145371422E-2,-2.138026804E-2
1.355578919E0,-8.246674202E-3,8.093958721E-3,-2.138026804E-2
1.357704127E0,-8.246674202E-3,2.886336111E-2,-1.893680729E-2
1.359829336E0,-8.246674202E-3,2.397644334E-2,-1.893680729E-2
1.361954544E0,3.054323897E-4,-6.566796452E-3,-1.771507785E-2
1.364079752E0,7.635809947E-3,-2.244928107E-2,-1.649334840E-2
1.366204961E0,1.527161920E-3,-1.878409274E-2,-1.771507785E-2
1.368330169E0,-9.162971983E-4,-6.566796452E-3,-1.893680729E-2
1.370455377E0,-7.024944760E-3,1.985310577E-3,-1.771507785E-2
1.372580586E0,-5.803215317E-3,8.093958721E-3,-1.527161989E-2
1.374705794E0,-7.024944760E-3,1.985310577E-3,-1.527161989E-2
1.376831002E0,-3.359756200E-3,-1.023198478E-2,-1.404988952E-2
1.378956211E0,-5.803215317E-3,-1.267544460E-2,-1.649334840E-2
1.381081419E0,-5.803215317E-3,-4.123337101E-3,-1.649334840E-2
1.383206627E0,-9.468403645E-3,-2.901607659E-3,-1.527161989E-2
1.385331836E0,-8.246674202E-3,-1.679878100E-3,-1.771507785E-2
1.387457044E0,-4.581485875E-3,4.428769462E-3,-1.771507785E-2
1.389582252E0,-4.581485875E-3,7.635809598E-4,-1.771507785E-2
1.391707461E0,3.054323897E-4,-6.566796452E-3,-1.893680729E-2
1.393832669E0,3.054323897E-4,-9.010255337E-3,-2.015853859E-2
1.395957877E0,1.527161920E-3,-1.023198478E-2,-2.015853859E-2
1.398083086E0,1.527161920E-3,-1.634063199E-2,-1.649334840E-2
1.400208294E0,2.748891478E-3,-1.267544460E-2,-1.771507785E-2
1.402333502E0,3.054323897E-4,-6.566796452E-3,-1.649334840E-2
1.404458711E0,3.054323897E-4,-1.679878100E-3,-1.771507785E-2
1.406583919E0,-3.359756200E-3,-1.679878100E-3,-1.893680729E-2
1.408709127E0,-3.359756200E-3,-4.581485991E-4,-1.893680729E-2
1.410834336E0,-9.162971983E-4,-2.901607659E-3,-1.771507785E-2
1.412959544E0,-9.162971983E-4,-7.788525894E-3,-1.771507785E-2
1.415084752E0,-9.162971983E-4,-2.901607659E-3,-1.771507785E-2
1.417209961E0,-9.162971983E-4,6.872228812E-3,-2.015853859E-2
1.419335169E0,6.414080039E-3,8.093958721E-3,-2.138026804E-2
1.421460377E0,7.635809947E-3,-2.901607659E-3,-2.015853859E-2
1.423585586E0,1.130099874E-2,-7.788525894E-3,-1.771507785E-2
1.425710794E0,1.130099874E-2,-1.389717404E-2,-1.649334840E-2
1.427836002E0,1.007926930E-2,-1.878409274E-2,-1.649334840E-2
1.429961211E0,7.635809947E-3,-1.023198478E-2,-1.771507785E-2
1.432086419E0,3.970621154E-3,5.650499370E-3,-1.771507785E-2
1.434211627E0,3.054323897E-4,8.093958721E-3,-1.893680729E-2
1.436336836E0,3.054323897E-4,7.635809598E-4,-1.893680729E-2
1.438462044E0,6.414080039E-3,-4.123337101E-3,-2.015853859E-2
1.440587252E0,3.970621154E-3,-1.145371422E-2,-1.771507785E-2
1.442712461E0,3.970621154E-3,-1.878409274E-2,-2.015853859E-2
1.444837669E0,1.527161920E-3,-6.566796452E-3,-2.015853859E-2
1.446962877E0,3.054323897E-4,1.298087649E-2,-2.260199748E-2
1.449088086E0,1.527161920E-3,1.053741761E-2,-2.260199748E-2
1.451213294E0,1.007926930E-2,-4.123337101E-3,-2.015853859E-2
1.453338502E0,1.252272818E-2,-2.000582218E-2,-1.893680729E-2
1.455463711E0,1.740964688E-2,-2.855792828E-2,-1.893680729E-2
1.457588919E0,1.252272818E-2,-2.367101051E-2,-2.138026804E-2
1.459714127E0,6.414080039E-3,-4.123337101E-3,-2.138026804E-2
1.461839336E0,5.192350596E-3,1.053741761E-2,-2.015853859E-2
1.463964544E0,7.635809947E-3,5.650499370E-3,-2.138026804E-2
1.466089700E0,1.007926930E-2,-1.267544460E-2,-2.015853859E-2
1.468214908E0,1.374445762E-2,-1.878409274E-2,-1.893680729E-2
1.470340169E0,8.857538924E-3,-1.878409274E-2,-2.015853859E-2
1.472465325E0,6.414080039E-3,-7.788525894E-3,-2.138026804E-2
1.474590533E0,2.748891478E-3,1.664606482E-2,-2.138026804E-2
1.476715742E0,3.054323897E-4,2.641990222E-2,-2.260199748E-2
1.478840950E0,5.192350596E-3,1.298087649E-2,-2.260199748E-2
1.480966158E0,1.130099874E-2,-9.010255337E-3,-2.015853859E-2
1.483091367E0,1.007926930E-2,-1.634063199E-2,-2.015853859E-2
1.485216575E0,6.414080039E-3,-6.566796452E-3,-2.138026804E-2
1.487341783E0,3.970621154E-3,4.428769462E-3,-2.138026804E-2
1.489466992E0,3.970621154E-3,5.650499370E-3,-1.893680729E-2
1.491592200E0,3.970621154E-3,5.650499370E-3,-1.771507785E-2
1.493717408E0,5.192350596E-3,-5.345067009E-3,-1.649334840E-2
1.495842617E0,7.635809947E-3,-1.511890348E-2,-1.527161989E-2
1.497967825E0,7.635809947E-3,-6.566796452E-3,-1.771507785E-2
1.500093033E0,5.192350596E-3,-4.581485991E-4,-2.015853859E-2
1.502218242E0,3.970621154E-3,-4.123337101E-3,-2.015853859E-2
1.504343450E0,5.192350596E-3,-1.679878100E-3,-1.893680729E-2
1.506468658E0,3.970621154E-3,1.985310577E-3,-1.771507785E-2
1.508593867E0,1.130099874E-2,-9.010255337E-3,-1.893680729E-2
1.510719075E0,1.252272818E-2,-1.267544460E-2,-1.893680729E-2
1.512844283E0,8.857538924E-3,-6.566796452E-3,-2.015853859E-2
1.514969492E0,7.635809947E-3,-4.123337101E-3,-1.893680729E-2
1.517094700E0,6.414080039E-3,-1.679878100E-3,-2.015853859E-2
1.519219908E0,7.635809947E-3,-1.679878100E-3,-1.893680729E-2
1.521345065E0,8.857538924E-3,1.985310577E-3,-2.015853859E-2
1.523470325E0,7.635809947E-3,1.985310577E-3,-2.015853859E-2
1.525595533E0,6.414080039E-3,7.635809598E-4,-2.015853859E-2
1.527720742E0,6.414080039E-3,8.093958721E-3,-2.015853859E-2
1.529845950E0,6.414080039E-3,6.872228812E-3,-1.893680729E-2
1.531971158E0,8.857538924E-3,-4.581485991E-4,-2.015853859E-2
1.534096367E0,1.007926930E-2,4.428769462E-3,-1.893680729E-2
1.536221575E0,1.252272818E-2,1.175914705E-2,-2.015853859E-2
1.538346783E0,1.374445762E-2,1.053741761E-2,-2.138026804E-2
1.540471992E0,1.618791744E-2,7.635809598E-4,-2.138026804E-2
1.542597200E0,1.496618707E-2,7.635809598E-4,-1.893680729E-2
1.544722408E0,1.374445762E-2,-2.901607659E-3,-1.771507785E-2
1.546847617E0,1.374445762E-2,-4.123337101E-3,-1.771507785E-2
1.548972825E0,1.374445762E-2,3.207040019E-3,-1.771507785E-2
1.551098033E0,7.635809947E-3,1.420260593E-2,-1.893680729E-2
1.553223242E0,5.192350596E-3,1.298087649E-2,-1.893680729E-2
1.555348450E0,5.192350596E-3,5.650499370E-3,-2.015853859E-2
1.557473658E0,6.414080039E-3,4.428769462E-3,-1.893680729E-2
1.559598867E0,6.414080039E-3,-4.581485991E-4,-1.893680729E-2
1.561724075E0,2.748891478E-3,-4.581485991E-4,-1.893680729E-2
1.563849283E0,3.054323897E-4,5.650499370E-3,-2.138026804E-2
1.565974492E0,3.054323897E-4,1.786779426E-2,-2.260199748E-2
1.568099700E0,5.192350596E-3,1.542433538E-2,-2.138026804E-2
1.570224908E0,1.130099874E-2,4.428769462E-3,-1.893680729E-2
1.572350117E0,1.496618707E-2,-1.023198478E-2,-1.771507785E-2
1.574475325E0,1.496618707E-2,-1.878409274E-2,-1.893680729E-2
1.576600533E0,1.130099874E-2,-1.756236330E-2,-1.893680729E-2
1.578725742E0,7.635809947E-3,-4.581485991E-4,-2.015853859E-2
1.580850950E0,3.970621154E-3,1.420260593E-2,-2.015853859E-2
1.582976158E0,3.970621154E-3,1.298087649E-2,-2.015853859E-2
1.585101367E0,7.635809947E-3,7.635809598E-4,-1.771507785E-2
1.587226575E0,1.007926930E-2,-1.679878100E-3,-1.893680729E-2
1.589351783E0,8.857538924E-3,-4.123337101E-3,-2.015853859E-2
1.591476992E0,5.192350596E-3,-4.581485991E-4,-2.138026804E-2
1.593602200E0,1.527161920E-3,2.641990222E-2,-2.382372692E-2
1.595727408E0,-2.138026757E-3,3.619373962E-2,-2.138026804E-2
1.597852617E0,3.970621154E-3,1.786779426E-2,-2.138026804E-2
1.599977825E0,8.857538924E-3,-1.679878100E-3,-1.893680729E-2
1.602103033E0,8.857538924E-3,-7.788525894E-3,-1.893680729E-2
1.604228242E0,5.192350596E-3,-4.581485991E-4,-2.015853859E-2
1.606353450E0,3.054323897E-4,1.298087649E-2,-2.015853859E-2
1.608478658E0,-3.359756200E-3,2.641990222E-2,-2.015853859E-2
1.610603867E0,-9.162971983E-4,2.764163166E-2,-1.771507785E-2
1.612729075E0,2.748891478E-3,9.315688163E-3,-1.649334840E-2
1.614854283E0,5.192350596E-3,-4.581485991E-4,-1.527161989E-2
1.616979492E0,1.527161920E-3,6.872228812E-3,-1.771507785E-2
1.619104700E0,3.054323897E-4,1.542433538E-2,-1.893680729E-2
1.621229908E0,-5.803215317E-3,2.397644334E-2,-2.260199748E-2
1.623355117E0,-4.581485875E-3,3.497200832E-2,-2.015853859E-2
1.625480325E0,-3.359756200E-3,2.641990222E-2,-2.015853859E-2
1.627605533E0,7.635809947E-3,5.650499370E-3,-2.015853859E-2
1.629730742E0,7.635809947E-3,-4.581485991E-4,-2.015853859E-2
1.631855950E0,-9.162971983E-4,8.093958721E-3,-2.138026804E-2
1.633981158E0,-4.581485875E-3,1.908952370E-2,-2.382372692E-2
1.636106367E0,-2.138026757E-3,2.153298259E-2,-2.382372692E-2
1.638231575E0,-9.162971983E-4,1.664606482E-2,-2.260199748E-2
1.640356731E0,2.748891478E-3,1.175914705E-2,-2.260199748E-2
1.642481940E0,1.527161920E-3,9.315688163E-3,-2.260199748E-2
1.644607200E0,3.054323897E-4,1.298087649E-2,-2.382372692E-2
1.646732408E0,-9.162971983E-4,2.031125315E-2,-2.626718581E-2
1.648857565E0,-3.359756200E-3,2.519817278E-2,-2.626718581E-2
1.650982825E0,-2.138026757E-3,2.764163166E-2,-2.504545636E-2
1.653108033E0,3.054323897E-4,2.641990222E-2,-2.626718581E-2
1.655233190E0,3.970621154E-3,2.153298259E-2,-2.626718581E-2
1.657358450E0,6.414080039E-3,1.053741761E-2,-2.626718581E-2
1.659483606E0,6.414080039E-3,8.093958721E-3,-2.626718581E-2
1.661608815E0,5.192350596E-3,1.786779426E-2,-2.382372692E-2
1.663734023E0,3.970621154E-3,1.786779426E-2,-2.382372692E-2
1.665859231E0,5.192350596E-3,6.872228812E-3,-2.382372692E-2
1.667984440E0,6.414080039E-3,5.650499370E-3,-2.138026804E-2
1.670109648E0,1.527161920E-3,1.053741761E-2,-2.382372692E-2
1.672234856E0,-9.162971983E-4,1.542433538E-2,-2.382372692E-2
1.674360065E0,-2.138026757E-3,1.664606482E-2,-2.382372692E-2
1.676485273E0,-9.162971983E-4,1.542433538E-2,-2.260199748E-2
1.678610481E0,1.527161920E-3,5.650499370E-3,-2.138026804E-2
1.680735690E0,2.748891478E-3,4.428769462E-3,-2.382372692E-2
1.682860898E0,-2.138026757E-3,1.908952370E-2,-2.382372692E-2
1.684986106E0,-5.803215317E-3,3.375028074E-2,-2.626718581E-2
1.687111315E0,-3.359756200E-3,2.641990222E-2,-2.748891525E-2
1.689236523E0,3.054323897E-4,1.908952370E-2,-2.382372692E-2
1.691361731E0,1.527161920E-3,1.420260593E-2,-2.260199748E-2
1.693486940E0,1.527161920E-3,3.207040019E-3,-2.260199748E-2
1.695612148E0,2.748891478E-3,7.635809598E-4,-2.260199748E-2
1.697737356E0,1.527161920E-3,1.053741761E-2,-2.382372692E-2
1.699862565E0,-3.359756200E-3,1.420260593E-2,-2.504545636E-2
1.701987773E0,-3.359756200E-3,1.420260593E-2,-2.382372692E-2
1.704112981E0,-2.138026757E-3,1.053741761E-2,-2.382372692E-2
1.706238190E0,2.748891478E-3,5.650499370E-3,-2.260199748E-2
1.708363398E0,3.054323897E-4,4.428769462E-3,-2.504545636E-2
1.710488606E0,-2.138026757E-3,1.542433538E-2,-2.626718581E-2
1.712613815E0,-4.581485875E-3,2.886336111E-2,-2.626718581E-2
1.714739023E0,-5.803215317E-3,3.130681813E-2,-2.626718581E-2
1.716864231E0,1.527161920E-3,1.664606482E-2,-2.626718581E-2
1.718989440E0,3.970621154E-3,1.985310577E-3,-2.138026804E-2
1.721114648E0,3.970621154E-3,-7.788525894E-3,-2.138026804E-2
1.723239856E0,3.054323897E-4,-1.679878100E-3,-2.382372692E-2
1.725365065E0,-4.581485875E-3,9.315688163E-3,-2.382372692E-2
1.727490273E0,-8.246674202E-3,2.397644334E-2,-2.504545636E-2
1.729615481E0,-9.468403645E-3,2.275471389E-2,-2.382372692E-2
1.731740690E0,-4.581485875E-3,4.428769462E-3,-2.015853859E-2
1.733865846E0,-3.359756200E-3,-9.010255337E-3,-2.015853859E-2
1.735991106E0,-3.359756200E-3,-1.679878100E-3,-2.138026804E-2
1.738116315E0,-7.024944760E-3,3.207040019E-3,-2.504545636E-2
1.740241523E0,-9.468403645E-3,9.315688163E-3,-2.626718581E-2
1.742366731E0,-8.246674202E-3,1.786779426E-2,-2.504545636E-2
1.744491940E0,-5.803215317E-3,1.542433538E-2,-2.504545636E-2
1.746617148E0,-9.162971983E-4,-1.679878100E-3,-2.382372692E-2
1.748742356E0,1.527161920E-3,-1.389717404E-2,-2.138026804E-2
1.750867565E0,-9.162971983E-4,-9.010255337E-3,-2.382372692E-2
1.752992773E0,-5.803215317E-3,1.985310577E-3,-2.626718581E-2
1.755117981E0,-9.468403645E-3,9.315688163E-3,-2.504545636E-2
1.757243190E0,-9.468403645E-3,1.542433538E-2,-2.504545636E-2
1.759368398E0,-9.468403645E-3,1.053741761E-2,-2.382372692E-2
1.761493606E0,-9.468403645E-3,3.207040019E-3,-2.504545636E-2
1.763618815E0,-1.069013402E-2,6.872228812E-3,-2.626718581E-2
1.765744023E0,-1.191186346E-2,1.908952370E-2,-2.748891525E-2
1.767869231E0,-1.313359290E-2,1.908952370E-2,-2.748891525E-2
1.769994440E0,-9.468403645E-3,2.397644334E-2,-2.871064469E-2
1.772119648E0,-7.024944760E-3,2.519817278E-2,-2.748891525E-2
1.774244856E0,-3.359756200E-3,1.786779426E-2,-2.748891525E-2
1.776370065E0,3.054323897E-4,1.542433538E-2,-2.626718581E-2
1.778495273E0,-3.359756200E-3,2.031125315E-2,-2.748891525E-2
1.780620481E0,-3.359756200E-3,1.908952370E-2,-2.626718581E-2
1.782745690E0,-9.162971983E-4,9.315688163E-3,-2.504545636E-2
1.784870898E0,3.054323897E-4,-4.581485991E-4,-2.382372692E-2
1.786996106E0,-9.162971983E-4,-2.901607659E-3,-2.260199748E-2
1.789121315E0,-2.138026757E-3,-1.679878100E-3,-2.260199748E-2
1.791246523E0,-5.803215317E-3,4.428769462E-3,-2.260199748E-2
1.793371731E0,-9.468403645E-3,1.175914705E-2,-2.504545636E-2
1.795496940E0,-9.468403645E-3,1.542433538E-2,-2.382372692E-2
1.797622148E0,-7.024944760E-3,9.315688163E-3,-2.382372692E-2
1.799747356E0,-8.246674202E-3,5.650499370E-3,-2.504545636E-2
1.801872565E0,-9.468403645E-3,1.175914705E-2,-2.504545636E-2
1.803997773E0,-7.024944760E-3,1.664606482E-2,-2.626718581E-2
1.806122981E0,-7.024944760E-3,1.664606482E-2,-2.748891525E-2
1.808248190E0,-5.803215317E-3,1.298087649E-2,-2.382372692E-2
1.810373398E0,-2.138026757E-3,4.428769462E-3,-2.382372692E-2
1.812498606E0,-3.359756200E-3,-2.901607659E-3,-2.260199748E-2
1.814623815E0,-4.581485875E-3,1.985310577E-3,-2.260199748E-2
1.816749023E0,-1.191186346E-2,1.053741761E-2,-2.382372692E-2
1.818874231E0,-1.435532235E-2,2.153298259E-2,-2.504545636E-2
1.820999440E0,-1.557705179E-2,2.275471389E-2,-2.504545636E-2
1.823124648E0,-1.313359290E-2,2.519817278E-2,-2.504545636E-2
1.825249856E0,-1.069013402E-2,1.664606482E-2,-2.260199748E-2
1.827375065E0,-1.191186346E-2,1.053741761E-2,-2.504545636E-2
1.829500273E0,-1.435532235E-2,2.031125315E-2,-2.504545636E-2
1.831625481E0,-1.679878123E-2,3.130681813E-2,-2.626718581E-2
1.833750690E0,-1.557705179E-2,2.397644334E-2,-2.504545636E-2
1.835875898E0,-8.246674202E-3,8.093958721E-3,-2.260199748E-2
1.838001106E0,-5.803215317E-3,7.635809598E-4,-2.138026804E-2
1.840126315E0,-8.246674202E-3,7.635809598E-4,-2.015853859E-2
1.842251523E0,-9.468403645E-3,8.093958721E-3,-2.015853859E-2
1.844376731E0,-1.313359290E-2,2.031125315E-2,-2.138026804E-2
1.846501940E0,-1.557705179E-2,2.031125315E-2,-2.138026804E-2
1.848627148E0,-1.679878123E-2,1.786779426E-2,-2.015853859E-2
1.850752356E0,-1.435532235E-2,1.664606482E-2,-1.893680729E-2
1.852877565E0,-1.802051067E-2,1.175914705E-2,-1.771507785E-2
1.855002773E0,-1.557705179E-2,6.872228812E-3,-1.893680729E-2
1.857127981E0,-1.924224012E-2,5.650499370E-3,-2.015853859E-2
1.859253190E0,-2.046396956E-2,1.298087649E-2,-2.138026804E-2
1.861378398E0,-2.168569900E-2,2.275471389E-2,-2.138026804E-2
1.863503606E0,-2.046396956E-2,2.153298259E-2,-2.015853859E-2
1.865628815E0,-1.557705179E-2,1.053741761E-2,-1.893680729E-2
1.867754023E0,-1.191186346E-2,-1.679878100E-3,-1.893680729E-2
1.869879231E0,-1.069013402E-2,7.635809598E-4,-1.893680729E-2
1.872004440E0,-1.313359290E-2,1.298087649E-2,-2.015853859E-2
1.874129648E0,-1.557705179E-2,1.664606482E-2,-2.138026804E-2
1.876254856E0,-1.679878123E-2,1.175914705E-2,-1.893680729E-2
1.878380065E0,-1.557705179E-2,7.635809598E-4,-1.771507785E-2
1.880505273E0,-1.435532235E-2,-5.345067009E-3,-1.649334840E-2
1.882630481E0,-1.679878123E-2,8.093958721E-3,-1.771507785E-2
1.884755690E0,-2.168569900E-2,1.908952370E-2,-1.893680729E-2
1.886880898E0,-2.290742844E-2,2.764163166E-2,-2.138026804E-2
1.889006106E0,-2.290742844E-2,3.008509055E-2,-2.015853859E-2
1.891131315E0,-2.046396956E-2,3.375028074E-2,-1.893680729E-2
1.893256523E0,-1.679878123E-2,2.031125315E-2,-2.015853859E-2
1.895381731E0,-1.313359290E-2,7.635809598E-4,-1.893680729E-2
1.897506940E0,-1.313359290E-2,4.428769462E-3,-1.893680729E-2
1.899632148E0,-1.924224012E-2,1.420260593E-2,-2.015853859E-2
1.901757356E0,-1.924224012E-2,2.031125315E-2,-1.893680729E-2
1.903882565E0,-1.679878123E-2,1.298087649E-2,-1.893680729E-2
1.906007773E0,-1.435532235E-2,3.207040019E-3,-1.649334840E-2
1.908132981E0,-1.557705179E-2,-1.679878100E-3,-1.527161989E-2
1.910258190E0,-2.046396956E-2,6.872228812E-3,-1.649334840E-2
1.912383398E0,-2.535088919E-2,1.786779426E-2,-2.015853859E-2
1.914508606E0,-2.779434808E-2,2.275471389E-2,-1.893680729E-2
1.916633815E0,-2.412915789E-2,1.420260593E-2,-1.771507785E-2
1.918759023E0,-2.412915789E-2,9.315688163E-3,-1.649334840E-2
1.920884231E0,-2.168569900E-2,9.315688163E-3,-1.771507785E-2
1.923009440E0,-2.168569900E-2,6.872228812E-3,-1.893680729E-2
1.925134648E0,-2.168569900E-2,5.650499370E-3,-1.893680729E-2
1.927259856E0,-2.168569900E-2,1.298087649E-2,-1.771507785E-2
1.929385065E0,-2.046396956E-2,9.315688163E-3,-1.771507785E-2
1.931510273E0,-1.679878123E-2,-4.581485991E-4,-1.649334840E-2
1.933635481E0,-1.313359290E-2,-5.345067009E-3,-1.649334840E-2
1.935760690E0,-1.557705179E-2,-1.679878100E-3,-1.527161989E-2
1.937885898E0,-2.046396956E-2,8.093958721E-3,-1.771507785E-2
1.940011106E0,-2.412915789E-2,1.542433538E-2,-1.893680729E-2
1.942136315E0,-2.168569900E-2,1.908952370E-2,-1.893680729E-2
1.944261523E0,-1.679878123E-2,1.175914705E-2,-1.771507785E-2
1.946386731E0,-1.557705179E-2,-4.123337101E-3,-1.771507785E-2
1.948511940E0,-1.557705179E-2,-4.581485991E-4,-2.015853859E-2
1.950637148E0,-1.924224012E-2,1.298087649E-2,-1.893680729E-2
1.952762356E0,-1.802051067E-2,1.298087649E-2,-2.138026804E-2
1.954887565E0,-1.557705179E-2,6.872228812E-3,-1.893680729E-2
1.957012773E0,-1.435532235E-2,-4.581485991E-4,-1.771507785E-2
1.959137981E0,-1.313359290E-2,-4.123337101E-3,-1.771507785E-2
1.961263190E0,-1.191186346E-2,-7.788525894E-3,-1.649334840E-2
1.963388398E0,-1.435532235E-2,-5.345067009E-3,-1.771507785E-2
1.965513606E0,-1.802051067E-2,1.985310577E-3,-1.893680729E-2
1.967638815E0,-2.290742844E-2,5.650499370E-3,-1.771507785E-2
1.969764023E0,-2.290742844E-2,1.985310577E-3,-1.649334840E-2
1.971889231E0,-1.802051067E-2,-4.123337101E-3,-1.527161989E-2
1.974014440E0,-1.802051067E-2,-1.511890348E-2,-1.527161989E-2
1.976139648E0,-1.679878123E-2,-2.122755162E-2,-1.649334840E-2
1.978264856E0,-2.046396956E-2,-1.023198478E-2,-1.893680729E-2
1.980390065E0,-2.290742844E-2,4.428769462E-3,-2.015853859E-2
1.982515273E0,-2.046396956E-2,1.985310577E-3,-2.015853859E-2
1.984640481E0,-1.679878123E-2,-1.145371422E-2,-2.015853859E-2
1.986765690E0,-1.313359290E-2,-2.000582218E-2,-1.649334840E-2
1.988890898E0,-1.069013402E-2,-2.367101051E-2,-1.771507785E-2
1.991016106E0,-1.313359290E-2,-1.756236330E-2,-1.771507785E-2
1.993141315E0,-1.557705179E-2,-9.010255337E-3,-1.893680729E-2
1.995266523E0,-1.802051067E-2,-2.901607659E-3,-1.893680729E-2
1.997391731E0,-1.924224012E-2,-6.566796452E-3,-1.771507785E-2
1.999516940E0,-1.679878123E-2,-1.389717404E-2,-1.771507785E-2
2.001642148E0,-1.313359290E-2,-1.634063199E-2,-1.771507785E-2
2.003767356E0,-1.313359290E-2,-1.267544460E-2,-1.893680729E-2
2.005892565E0,-1.924224012E-2,-9.010255337E-3,-2.138026804E-2
2.008017773E0,-1.802051067E-2,7.635809598E-4,-2.015853859E-2
2.010142981E0,-1.557705179E-2,6.872228812E-3,-2.015853859E-2
2.012268190E0,-1.191186346E-2,-1.679878100E-3,-1.893680729E-2
2.014393398E0,-9.468403645E-3,-1.267544460E-2,-1.771507785E-2
2.016518606E0,-1.069013402E-2,-1.267544460E-2,-1.771507785E-2
2.018643815E0,-1.069013402E-2,-1.267544460E-2,-1.771507785E-2
2.020769023E0,-1.313359290E-2,-7.788525894E-3,-2.015853859E-2
2.022894231E0,-1.191186346E-2,-5.345067009E-3,-1.649334840E-2
2.025019440E0,-1.069013402E-2,-1.023198478E-2,-1.649334840E-2
2.027144648E0,-9.468403645E-3,-2.000582218E-2,-1.527161989E-2
2.029269856E0,-1.313359290E-2,-1.756236330E-2,-1.649334840E-2
2.031395065E0,-1.679878123E-2,-4.123337101E-3,-1.649334840E-2
2.033520273E0,-2.046396956E-2,4.428769462E-3,-1.771507785E-2
2.035645481E0,-2.290742844E-2,4.428769462E-3,-1.771507785E-2
2.037770690E0,-2.046396956E-2,4.428769462E-3,-1.771507785E-2
2.039895898E0,-1.679878123E-2,3.207040019E-3,-1.649334840E-2
2.042021106E0,-1.435532235E-2,-4.123337101E-3,-1.771507785E-2
2.044146315E0,-1.313359290E-2,-1.023198478E-2,-1.893680729E-2
2.046271523E0,-1.435532235E-2,-4.123337101E-3,-1.649334840E-2
2.048396731E0,-1.557705179E-2,1.985310577E-3,-1.527161989E-2
2.050521940E0,-1.191186346E-2,-4.581485991E-4,-1.527161989E-2
2.052647148E0,-1.191186346E-2,-4.581485991E-4,-1.404988952E-2
2.054772356E0,-1.069013402E-2,1.985310577E-3,-1.282816008E-2
2.056897565E0,-1.191186346E-2,6.872228812E-3,-1.282816008E-2
2.059022773E0,-1.313359290E-2,1.053741761E-2,-1.282816008E-2
2.061147981E0,-1.191186346E-2,9.315688163E-3,-1.160643063E-2
2.063273190E0,-1.191186346E-2,5.650499370E-3,-1.160643063E-2
2.065398398E0,-1.313359290E-2,4.428769462E-3,-1.038470119E-2
2.067523606E0,-1.679878123E-2,1.053741761E-2,-1.160643063E-2
2.069648815E0,-1.802051067E-2,2.397644334E-2,-1.160643063E-2
2.071773971E0,-1.802051067E-2,2.641990222E-2,-1.160643063E-2
2.073899231E0,-1.313359290E-2,1.542433538E-2,-1.160643063E-2
2.076024440E0,-1.191186346E-2,4.428769462E-3,-9.162971750E-3
2.078149648E0,-1.191186346E-2,1.985310577E-3,-7.941242307E-3
2.080274856E0,-1.191186346E-2,-1.679878100E-3,-6.719512399E-3
2.082400065E0,-1.435532235E-2,3.207040019E-3,-7.941242307E-3
2.084525273E0,-1.924224012E-2,1.175914705E-2,-9.162971750E-3
2.086650481E0,-2.290742844E-2,1.908952370E-2,-9.162971750E-3
2.088775690E0,-2.290742844E-2,1.664606482E-2,-5.497782957E-3
2.090900898E0,-1.924224012E-2,6.872228812E-3,-4.276053514E-3
2.093026106E0,-1.435532235E-2,-2.901607659E-3,-6.719512399E-3
2.095151315E0,-1.679878123E-2,-1.756236330E-2,-7.941242307E-3
2.097276523E0,-1.802051067E-2,-7.788525894E-3,-1.160643063E-2
2.099401731E0,-2.046396956E-2,9.315688163E-3,-1.160643063E-2
2.101526940E0,-1.802051067E-2,9.315688163E-3,-1.160643063E-2
2.103652148E0,-1.313359290E-2,-4.123337101E-3,-1.160643063E-2
2.105777304E0,-9.468403645E-3,-1.145371422E-2,-7.941242307E-3
2.107902565E0,-1.069013402E-2,-1.634063199E-2,-9.162971750E-3
2.110027773E0,-1.069013402E-2,-1.145371422E-2,-1.038470119E-2
2.112152981E0,-1.435532235E-2,3.207040019E-3,-1.160643063E-2
2.114278190E0,-1.557705179E-2,9.315688163E-3,-9.162971750E-3
2.116403398E0,-1.435532235E-2,9.315688163E-3,-9.162971750E-3
2.118528606E0,-9.468403645E-3,-4.581485991E-4,-9.162971750E-3
2.120653815E0,-8.246674202E-3,-6.566796452E-3,-7.941242307E-3
2.122779023E0,-8.246674202E-3,-5.345067009E-3,-1.038470119E-2
2.124904231E0,-1.069013402E-2,-4.581485991E-4,-1.404988952E-2
2.127029440E0,-1.069013402E-2,1.298087649E-2,-1.282816008E-2
2.129154648E0,-8.246674202E-3,2.031125315E-2,-1.282816008E-2
2.131279856E0,-2.138026757E-3,9.315688163E-3,-1.404988952E-2
2.133405065E0,2.748891478E-3,-7.788525894E-3,-1.160643063E-2
2.135530273E0,3.970621154E-3,-1.023198478E-2,-1.160643063E-2
2.137655481E0,-2.138026757E-3,-4.123337101E-3,-1.160643063E-2
2.139780690E0,-2.138026757E-3,1.985310577E-3,-1.404988952E-2
2.141905898E0,-9.162971983E-4,6.872228812E-3,-1.282816008E-2
2.144031106E0,-2.138026757E-3,3.207040019E-3,-1.160643063E-2
2.146156315E0,-9.162971983E-4,-5.345067009E-3,-1.038470119E-2
2.148281523E0,-3.359756200E-3,-1.023198478E-2,-1.160643063E-2
2.150406731E0,-4.581485875E-3,-2.901607659E-3,-1.282816008E-2
2.152531940E0,-8.246674202E-3,7.635809598E-4,-1.527161989E-2
2.154657148E0,-1.069013402E-2,-4.581485991E-4,-1.527161989E-2
2.156782356E0,-1.069013402E-2,3.207040019E-3,-1.404988952E-2
2.158907565E0,-9.468403645E-3,5.650499370E-3,-1.404988952E-2
2.161032773E0,-5.803215317E-3,-4.123337101E-3,-1.649334840E-2
2.163157981E0,-3.359756200E-3,-6.566796452E-3,-1.649334840E-2
2.165283190E0,-2.138026757E-3,7.635809598E-4,-1.527161989E-2
2.167408346E0,-4.581485875E-3,5.650499370E-3,-1.649334840E-2
2.169533606E0,3.054323897E-4,-2.901607659E-3,-1.527161989E-2
2.171658867E0,3.970621154E-3,-1.145371422E-2,-1.404988952E-2
2.173784023E0,3.970621154E-3,-1.634063199E-2,-1.282816008E-2
2.175909231E0,2.748891478E-3,-1.389717404E-2,-1.404988952E-2
2.178034440E0,3.054323897E-4,-1.679878100E-3,-1.404988952E-2
2.180159648E0,-9.162971983E-4,5.650499370E-3,-1.527161989E-2
2.182284856E0,1.527161920E-3,4.428769462E-3,-1.649334840E-2
2.184410117E0,2.748891478E-3,-6.566796452E-3,-1.404988952E-2
2.186535377E0,1.527161920E-3,-4.123337101E-3,-1.404988952E-2
2.188660481E0,-9.162971983E-4,8.093958721E-3,-1.527161989E-2
2.190785690E0,-9.162971983E-4,1.053741761E-2,-1.649334840E-2
2.192910950E0,3.054323897E-4,8.093958721E-3,-1.649334840E-2
2.195036158E0,1.527161920E-3,3.207040019E-3,-1.527161989E-2
2.197161367E0,5.192350596E-3,-7.788525894E-3,-1.404988952E-2
2.199286575E0,6.414080039E-3,-1.267544460E-2,-1.404988952E-2
2.201411783E0,3.970621154E-3,-9.010255337E-3,-1.527161989E-2
2.203536992E0,-9.162971983E-4,7.635809598E-4,-1.527161989E-2
2.205662200E0,-4.581485875E-3,6.872228812E-3,-1.649334840E-2
2.207787408E0,-2.138026757E-3,4.428769462E-3,-1.649334840E-2
2.209912617E0,3.970621154E-3,-4.123337101E-3,-1.527161989E-2
2.212037825E0,1.007926930E-2,-1.511890348E-2,-1.404988952E-2
2.214163033E0,1.007926930E-2,-1.878409274E-2,-1.527161989E-2
2.216288242E0,3.970621154E-3,-1.145371422E-2,-1.527161989E-2
2.218413450E0,3.054323897E-4,1.053741761E-2,-1.771507785E-2
2.220538658E0,1.527161920E-3,1.175914705E-2,-1.893680729E-2
2.222663867E0,7.635809947E-3,-5.345067009E-3,-1.649334840E-2
2.224789075E0,1.374445762E-2,-1.389717404E-2,-1.404988952E-2
2.226914283E0,1.374445762E-2,-1.756236330E-2,-1.404988952E-2
2.229039492E0,1.252272818E-2,-1.145371422E-2,-1.527161989E-2
2.231164700E0,1.130099874E-2,3.207040019E-3,-1.649334840E-2
2.233289908E0,1.252272818E-2,5.650499370E-3,-1.527161989E-2
2.235415117E0,1.496618707E-2,7.635809598E-4,-1.649334840E-2
2.237540325E0,1.863137633E-2,-1.145371422E-2,-1.527161989E-2
2.239665533E0,2.474002354E-2,-1.511890348E-2,-1.282816008E-2
2.241790742E0,2.229656465E-2,-1.389717404E-2,-1.404988952E-2
2.243915950E0,1.985310577E-2,-4.123337101E-3,-1.649334840E-2
2.246041158E0,1.618791744E-2,1.053741761E-2,-1.649334840E-2
2.248166367E0,1.740964688E-2,1.298087649E-2,-1.649334840E-2
2.250291575E0,2.351829410E-2,1.985310577E-3,-1.649334840E-2
2.252416783E0,2.718348242E-2,-1.267544460E-2,-1.527161989E-2
2.254541992E0,2.596175298E-2,-9.010255337E-3,-1.527161989E-2
2.256667200E0,1.985310577E-2,4.428769462E-3,-1.649334840E-2
2.258792408E0,1.618791744E-2,6.872228812E-3,-1.649334840E-2
2.260917617E0,1.740964688E-2,6.872228812E-3,-1.649334840E-2
2.263042825E0,1.618791744E-2,7.635809598E-4,-1.649334840E-2
2.265168033E0,1.740964688E-2,-4.123337101E-3,-1.404988952E-2
2.267293242E0,1.252272818E-2,-6.566796452E-3,-1.282816008E-2
2.269418450E0,1.252272818E-2,-4.581485991E-4,-1.527161989E-2
2.271543658E0,6.414080039E-3,1.053741761E-2,-1.771507785E-2
2.273668867E0,2.748891478E-3,1.420260593E-2,-1.893680729E-2
2.275794075E0,2.748891478E-3,1.664606482E-2,-1.771507785E-2
2.277919283E0,5.192350596E-3,1.298087649E-2,-1.649334840E-2
2.280044492E0,7.635809947E-3,3.207040019E-3,-1.527161989E-2
2.282169700E0,6.414080039E-3,5.650499370E-3,-1.649334840E-2
2.284294908E0,1.527161920E-3,2.153298259E-2,-1.771507785E-2
2.286420117E0,3.054323897E-4,2.764163166E-2,-1.771507785E-2
2.288545325E0,1.527161920E-3,1.786779426E-2,-1.649334840E-2
2.290670533E0,2.748891478E-3,1.420260593E-2,-1.649334840E-2
2.292795742E0,2.748891478E-3,1.542433538E-2,-1.527161989E-2
2.294920950E0,3.054323897E-4,1.908952370E-2,-1.527161989E-2
2.297046158E0,-9.162971983E-4,2.275471389E-2,-1.527161989E-2
2.299171367E0,3.054323897E-4,2.275471389E-2,-1.527161989E-2
2.301296575E0,2.748891478E-3,1.298087649E-2,-1.527161989E-2
2.303421783E0,1.527161920E-3,1.175914705E-2,-1.282816008E-2
2.305546992E0,-9.162971983E-4,2.153298259E-2,-1.404988952E-2
2.307672200E0,-2.138026757E-3,3.130681813E-2,-1.282816008E-2
2.309797408E0,3.054323897E-4,2.153298259E-2,-1.404988952E-2
2.311922617E0,2.748891478E-3,1.786779426E-2,-1.282816008E-2
2.314047825E0,-9.162971983E-4,1.908952370E-2,-1.404988952E-2
2.316173033E0,1.527161920E-3,1.908952370E-2,-1.160643063E-2
2.318298294E0,2.748891478E-3,5.650499370E-3,-9.162971750E-3
2.320423450E0,1.527161920E-3,8.093958721E-3,-1.038470119E-2
2.322548658E0,-9.162971983E-4,1.175914705E-2,-9.162971750E-3
2.324673919E0,-4.581485875E-3,1.542433538E-2,-1.160643063E-2
2.326799075E0,-5.803215317E-3,1.420260593E-2,-1.038470119E-2
2.328924336E0,-4.581485875E-3,1.175914705E-2,-9.162971750E-3
2.331049544E0,-9.162971983E-4,5.650499370E-3,-9.162971750E-3
2.333174700E0,3.054323897E-4,-2.901607659E-3,-7.941242307E-3
2.335299961E0,-2.138026757E-3,1.985310577E-3,-9.162971750E-3
2.337425169E0,-3.359756200E-3,1.175914705E-2,-1.038470119E-2
2.339550377E0,-2.138026757E-3,1.053741761E-2,-1.160643063E-2
2.341675533E0,3.054323897E-4,5.650499370E-3,-9.162971750E-3
2.343800794E0,1.527161920E-3,7.635809598E-4,-9.162971750E-3
2.345926002E0,1.527161920E-3,-7.788525894E-3,-9.162971750E-3
2.348051211E0,1.527161920E-3,-2.901607659E-3,-9.162971750E-3
2.350176419E0,-2.138026757E-3,4.428769462E-3,-9.162971750E-3
2.352301627E0,-4.581485875E-3,1.420260593E-2,-1.038470119E-2
2.354426836E0,-4.581485875E-3,1.542433538E-2,-1.160643063E-2
2.356552044E0,-3.359756200E-3,1.053741761E-2,-7.941242307E-3
2.358677252E0,1.527161920E-3,1.985310577E-3,-7.941242307E-3
2.360802461E0,-9.162971983E-4,-4.581485991E-4,-7.941242307E-3
2.362927669E0,-4.581485875E-3,9.315688163E-3,-1.160643063E-2
2.365052877E0,-8.246674202E-3,2.641990222E-2,-1.404988952E-2
2.367178086E0,-8.246674202E-3,3.619373962E-2,-1.282816008E-2
2.369303294E0,-2.138026757E-3,2.764163166E-2,-1.160643063E-2
2.371428502E0,1.527161920E-3,1.420260593E-2,-1.038470119E-2
2.373553711E0,3.970621154E-3,1.053741761E-2,-1.038470119E-2
2.375678919E0,-2.138026757E-3,1.298087649E-2,-1.038470119E-2
2.377804127E0,-7.024944760E-3,2.153298259E-2,-1.282816008E-2
2.379929336E0,-1.069013402E-2,3.130681813E-2,-1.282816008E-2
2.382054544E0,-1.313359290E-2,3.375028074E-2,-1.160643063E-2
2.384179752E0,-1.313359290E-2,2.275471389E-2,-1.160643063E-2
2.386304961E0,-1.069013402E-2,2.275471389E-2,-1.160643063E-2
2.388430169E0,-1.313359290E-2,2.397644334E-2,-1.282816008E-2
2.390555377E0,-1.313359290E-2,2.275471389E-2,-1.404988952E-2
2.392680586E0,-1.435532235E-2,2.275471389E-2,-1.404988952E-2
2.394805794E0,-1.435532235E-2,2.886336111E-2,-1.527161989E-2
2.396931002E0,-1.191186346E-2,2.886336111E-2,-1.282816008E-2
2.399056211E0,-8.246674202E-3,1.786779426E-2,-1.404988952E-2
2.401181419E0,-4.581485875E-3,1.786779426E-2,-1.160643063E-2
2.403306627E0,-8.246674202E-3,2.519817278E-2,-1.404988952E-2
2.405431836E0,-8.246674202E-3,2.397644334E-2,-1.527161989E-2
2.407557044E0,-8.246674202E-3,2.519817278E-2,-1.527161989E-2
2.409682252E0,-8.246674202E-3,2.764163166E-2,-1.404988952E-2
2.411807461E0,-9.468403645E-3,2.519817278E-2,-1.282816008E-2
2.413932669E0,-8.246674202E-3,2.397644334E-2,-1.282816008E-2
2.416057877E0,-9.468403645E-3,2.641990222E-2,-1.404988952E-2
2.418183086E0,-9.468403645E-3,3.375028074E-2,-1.282816008E-2
2.420308294E0,-8.246674202E-3,3.008509055E-2,-1.527161989E-2
2.422433502E0,-8.246674202E-3,2.641990222E-2,-1.404988952E-2
2.424558711E0,-7.024944760E-3,3.008509055E-2,-1.404988952E-2
2.426683919E0,-7.024944760E-3,2.764163166E-2,-1.160643063E-2
2.428809127E0,-7.024944760E-3,2.275471389E-2,-1.282816008E-2
2.430934336E0,-8.246674202E-3,2.153298259E-2,-1.527161989E-2
2.433059544E0,-9.468403645E-3,2.031125315E-2,-1.404988952E-2
2.435184752E0,-1.069013402E-2,1.664606482E-2,-1.160643063E-2
2.437309961E0,-1.069013402E-2,1.786779426E-2,-1.160643063E-2
2.439435169E0,-1.069013402E-2,1.664606482E-2,-1.160643063E-2
2.441560429E0,-1.313359290E-2,1.053741761E-2,-1.160643063E-2
2.443685638E0,-1.679878123E-2,1.908952370E-2,-1.160643063E-2
2.445810794E0,-1.802051067E-2,2.275471389E-2,-1.160643063E-2
2.447936054E0,-1.557705179E-2,1.908952370E-2,-1.160643063E-2
2.450061263E0,-1.313359290E-2,8.093958721E-3,-1.038470119E-2
2.452186471E0,-1.313359290E-2,-4.581485991E-4,-1.038470119E-2
2.454311679E0,-1.802051067E-2,1.053741761E-2,-1.038470119E-2
2.456436888E0,-2.290742844E-2,2.519817278E-2,-1.160643063E-2
2.458562096E0,-2.046396956E-2,2.397644334E-2,-1.404988952E-2
2.460687304E0,-1.802051067E-2,1.542433538E-2,-1.282816008E-2
2.462812513E0,-1.679878123E-2,8.093958721E-3,-1.160643063E-2
2.464937721E0,-1.802051067E-2,4.428769462E-3,-1.038470119E-2
2.467062929E0,-1.924224012E-2,1.298087649E-2,-1.160643063E-2
2.469188138E0,-2.412915789E-2,2.275471389E-2,-1.404988952E-2
2.471313346E0,-2.657261863E-2,2.641990222E-2,-1.527161989E-2
2.473438554E0,-2.657261863E-2,3.252854943E-2,-1.404988952E-2
2.475563763E0,-2.535088919E-2,2.641990222E-2,-1.160643063E-2
2.477688971E0,-2.168569900E-2,2.275471389E-2,-1.160643063E-2
2.479814179E0,-2.290742844E-2,2.031125315E-2,-1.038470119E-2
2.481939388E0,-2.412915789E-2,2.764163166E-2,-1.282816008E-2
2.484064596E0,-2.779434808E-2,3.863719851E-2,-1.404988952E-2
2.486189804E0,-2.535088919E-2,4.108065739E-2,-1.527161989E-2
2.488315013E0,-1.802051067E-2,2.886336111E-2,-1.404988952E-2
2.490440221E0,-1.191186346E-2,1.298087649E-2,-1.160643063E-2
2.492565429E0,-8.246674202E-3,8.093958721E-3,-1.160643063E-2
2.494690638E0,-1.191186346E-2,5.650499370E-3,-1.038470119E-2
2.496815846E0,-1.679878123E-2,1.542433538E-2,-1.404988952E-2
2.498941054E0,-2.046396956E-2,2.641990222E-2,-1.404988952E-2
2.501066263E0,-2.412915789E-2,2.764163166E-2,-1.649334840E-2
2.503191471E0,-2.168569900E-2,1.542433538E-2,-1.282816008E-2
2.505316679E0,-1.802051067E-2,1.298087649E-2,-1.282816008E-2
2.507441888E0,-2.046396956E-2,2.031125315E-2,-1.404988952E-2
2.509567096E0,-2.168569900E-2,1.908952370E-2,-1.404988952E-2
2.511692304E0,-2.168569900E-2,2.031125315E-2,-1.527161989E-2
2.513817513E0,-2.412915789E-2,2.641990222E-2,-1.771507785E-2
2.515942721E0,-2.046396956E-2,2.641990222E-2,-1.527161989E-2
2.518067929E0,-1.435532235E-2,1.420260593E-2,-1.404988952E-2
2.520193138E0,-9.468403645E-3,5.650499370E-3,-1.282816008E-2
2.522318346E0,-1.069013402E-2,5.650499370E-3,-1.527161989E-2
2.524443554E0,-1.557705179E-2,1.053741761E-2,-1.527161989E-2
2.526568763E0,-1.679878123E-2,1.908952370E-2,-1.771507785E-2
2.528693971E0,-1.802051067E-2,2.031125315E-2,-1.527161989E-2
2.530819179E0,-1.802051067E-2,1.664606482E-2,-1.404988952E-2
2.532944388E0,-1.802051067E-2,1.298087649E-2,-1.404988952E-2
2.535069596E0,-2.046396956E-2,1.908952370E-2,-1.527161989E-2
2.537194856E0,-2.290742844E-2,2.641990222E-2,-1.771507785E-2
2.539320065E0,-2.168569900E-2,2.397644334E-2,-1.771507785E-2
2.541445273E0,-2.290742844E-2,2.397644334E-2,-1.771507785E-2
2.543570481E0,-2.412915789E-2,2.764163166E-2,-1.649334840E-2
2.545695690E0,-2.168569900E-2,2.641990222E-2,-1.649334840E-2
2.547820898E0,-1.802051067E-2,1.664606482E-2,-1.649334840E-2
2.549946106E0,-1.802051067E-2,1.542433538E-2,-1.527161989E-2
2.552071315E0,-2.046396956E-2,1.786779426E-2,-1.771507785E-2
2.554196523E0,-1.924224012E-2,1.664606482E-2,-1.404988952E-2
2.556321731E0,-1.802051067E-2,1.053741761E-2,-1.404988952E-2
2.558446940E0,-1.679878123E-2,4.428769462E-3,-1.404988952E-2
2.560572148E0,-2.290742844E-2,6.872228812E-3,-1.404988952E-2
2.562697356E0,-2.657261863E-2,1.175914705E-2,-1.404988952E-2
2.564822565E0,-2.901607752E-2,1.786779426E-2,-1.404988952E-2
2.566947773E0,-2.535088919E-2,1.542433538E-2,-1.282816008E-2
2.569072981E0,-2.046396956E-2,1.985310577E-3,-1.282816008E-2
2.571198190E0,-1.924224012E-2,-6.566796452E-3,-1.282816008E-2
2.573323398E0,-2.290742844E-2,7.635809598E-4,-1.282816008E-2
2.575448606E0,-2.535088919E-2,1.175914705E-2,-1.282816008E-2
2.577573815E0,-2.290742844E-2,9.315688163E-3,-1.404988952E-2
2.579699023E0,-1.924224012E-2,-1.679878100E-3,-1.282816008E-2
2.581824231E0,-1.435532235E-2,-7.788525894E-3,-1.160643063E-2
2.583949440E0,-1.313359290E-2,-1.511890348E-2,-1.282816008E-2
2.586074648E0,-1.557705179E-2,-1.023198478E-2,-1.160643063E-2
2.588199856E0,-1.802051067E-2,-2.901607659E-3,-1.160643063E-2
2.590325065E0,-2.412915789E-2,5.650499370E-3,-1.404988952E-2
2.592450273E0,-2.535088919E-2,9.315688163E-3,-1.404988952E-2
2.594575481E0,-2.046396956E-2,8.093958721E-3,-1.282816008E-2
2.596700690E0,-1.557705179E-2,7.635809598E-4,-1.160643063E-2
2.598825898E0,-1.435532235E-2,-5.345067009E-3,-1.160643063E-2
2.600951106E0,-1.924224012E-2,5.650499370E-3,-1.282816008E-2
2.603076263E0,-2.168569900E-2,2.397644334E-2,-1.282816008E-2
2.605201523E0,-2.046396956E-2,2.886336111E-2,-1.527161989E-2
2.607326731E0,-1.313359290E-2,1.053741761E-2,-1.404988952E-2
2.609451940E0,-7.024944760E-3,-4.581485991E-4,-1.160643063E-2
2.611577200E0,-7.024944760E-3,-4.581485991E-4,-1.038470119E-2
2.613702408E0,-1.069013402E-2,-1.679878100E-3,-1.282816008E-2
2.615827617E0,-1.435532235E-2,3.207040019E-3,-1.282816008E-2
2.617952825E0,-1.802051067E-2,1.175914705E-2,-1.404988952E-2
2.620078033E0,-1.924224012E-2,1.298087649E-2,-1.404988952E-2
2.622203242E0,-1.802051067E-2,6.872228812E-3,-1.282816008E-2
2.624328450E0,-1.557705179E-2,3.207040019E-3,-1.160643063E-2
2.626453658E0,-1.679878123E-2,7.635809598E-4,-1.038470119E-2
2.628578867E0,-1.802051067E-2,4.428769462E-3,-1.404988952E-2
2.630704075E0,-2.535088919E-2,1.175914705E-2,-1.527161989E-2
2.632829283E0,-2.657261863E-2,2.153298259E-2,-1.527161989E-2
2.634954492E0,-2.535088919E-2,2.031125315E-2,-1.404988952E-2
2.637079700E0,-1.679878123E-2,6.872228812E-3,-1.404988952E-2
2.639204908E0,-9.468403645E-3,-6.566796452E-3,-1.038470119E-2
2.641330117E0,-1.069013402E-2,-6.566796452E-3,-1.038470119E-2
2.643455325E0,-1.313359290E-2,7.635809598E-4,-1.282816008E-2
2.645580533E0,-1.679878123E-2,8.093958721E-3,-1.282816008E-2
2.647705742E0,-1.679878123E-2,8.093958721E-3,-1.282816008E-2
2.649830950E0,-1.557705179E-2,-4.581485991E-4,-1.038470119E-2
2.651956158E0,-1.313359290E-2,-1.679878100E-3,-1.038470119E-2
2.654081367E0,-1.069013402E-2,7.635809598E-4,-1.160643063E-2
2.656206575E0,-1.069013402E-2,7.635809598E-4,-1.038470119E-2
2.658331783E0,-8.246674202E-3,-4.581485991E-4,-1.160643063E-2
2.660456992E0,-1.191186346E-2,-5.345067009E-3,-1.160643063E-2
2.662582200E0,-9.468403645E-3,6.872228812E-3,-9.162971750E-3
2.664707408E0,-3.359756200E-3,-5.345067009E-3,-9.162971750E-3
2.666832617E0,2.748891478E-3,-1.756236330E-2,-9.162971750E-3
2.668957825E0,1.527161920E-3,-2.000582218E-2,-7.941242307E-3
2.671083033E0,-2.138026757E-3,-4.123337101E-3,-9.162971750E-3
2.673208242E0,-4.581485875E-3,-2.901607659E-3,-9.162971750E-3
2.675333450E0,-3.359756200E-3,-6.566796452E-3,-7.941242307E-3
2.677458658E0,-2.138026757E-3,-1.023198478E-2,-7.941242307E-3
2.679583867E0,-2.138026757E-3,-1.145371422E-2,-7.941242307E-3
2.681709075E0,-2.138026757E-3,-1.023198478E-2,-6.719512399E-3
2.683834336E0,-5.803215317E-3,-7.788525894E-3,-9.162971750E-3
2.685959544E0,-5.803215317E-3,-5.345067009E-3,-9.162971750E-3
2.688084700E0,-9.162971983E-4,-1.267544460E-2,-9.162971750E-3
2.690209908E0,3.054323897E-4,-2.489273995E-2,-1.038470119E-2
2.692335169E0,-9.162971983E-4,-1.389717404E-2,-9.162971750E-3
2.694460325E0,-2.138026757E-3,-7.788525894E-3,-1.038470119E-2
2.696585586E0,3.054323897E-4,-9.010255337E-3,-1.038470119E-2
2.698710794E0,1.527161920E-3,-1.389717404E-2,-9.162971750E-3
2.700836002E0,3.970621154E-3,-1.389717404E-2,-9.162971750E-3
2.702961211E0,2.748891478E-3,-1.634063199E-2,-1.038470119E-2
2.705086419E0,1.527161920E-3,-1.634063199E-2,-1.038470119E-2
2.707211627E0,-9.162971983E-4,-4.123337101E-3,-1.038470119E-2
2.709336836E0,-7.024944760E-3,1.985310577E-3,-1.160643063E-2
2.711462044E0,-7.024944760E-3,5.650499370E-3,-1.160643063E-2
2.713587252E0,-3.359756200E-3,4.428769462E-3,-1.160643063E-2
2.715712461E0,-9.162971983E-4,1.985310577E-3,-1.160643063E-2
2.717837669E0,2.748891478E-3,-6.566796452E-3,-1.038470119E-2
2.719962877E0,-9.162971983E-4,-1.679878100E-3,-1.038470119E-2
2.722088033E0,-5.803215317E-3,1.175914705E-2,-1.038470119E-2
2.724213294E0,-7.024944760E-3,2.153298259E-2,-1.282816008E-2
2.726338502E0,-2.138026757E-3,1.542433538E-2,-1.282816008E-2
2.728463711E0,5.192350596E-3,1.985310577E-3,-1.038470119E-2
2.730588919E0,8.857538924E-3,-6.566796452E-3,-7.941242307E-3
2.732714127E0,7.635809947E-3,-1.267544460E-2,-7.941242307E-3
2.734839336E0,3.970621154E-3,-1.679878100E-3,-7.941242307E-3
2.736964544E0,2.748891478E-3,3.207040019E-3,-9.162971750E-3
2.739089752E0,3.054323897E-4,7.635809598E-4,-1.160643063E-2
2.741214961E0,1.527161920E-3,-4.123337101E-3,-9.162971750E-3
2.743340169E0,3.970621154E-3,-7.788525894E-3,-7.941242307E-3
2.745465377E0,5.192350596E-3,-4.123337101E-3,-6.719512399E-3
2.747590586E0,2.748891478E-3,-7.788525894E-3,-6.719512399E-3
2.749715794E0,1.527161920E-3,-7.788525894E-3,-7.941242307E-3
2.751841002E0,3.054323897E-4,1.985310577E-3,-9.162971750E-3
2.753966211E0,3.970621154E-3,-4.581485991E-4,-6.719512399E-3
2.756091419E0,8.857538924E-3,-1.145371422E-2,-7.941242307E-3
2.758216627E0,1.374445762E-2,-2.000582218E-2,-5.497782957E-3
2.760341836E0,1.374445762E-2,-2.000582218E-2,-6.719512399E-3
2.762467044E0,1.252272818E-2,-1.145371422E-2,-6.719512399E-3
2.764592304E0,7.635809947E-3,-2.901607659E-3,-1.038470119E-2
2.766717513E0,8.857538924E-3,3.207040019E-3,-7.941242307E-3
2.768842721E0,1.007926930E-2,-5.345067009E-3,-9.162971750E-3
2.770967929E0,1.496618707E-2,-7.788525894E-3,-6.719512399E-3
2.773093138E0,1.252272818E-2,-5.345067009E-3,-6.719512399E-3
2.775218346E0,1.130099874E-2,7.635809598E-4,-7.941242307E-3
2.777343554E0,1.130099874E-2,1.985310577E-3,-1.038470119E-2
2.779468763E0,8.857538924E-3,5.650499370E-3,-9.162971750E-3
2.781593971E0,7.635809947E-3,1.053741761E-2,-1.038470119E-2
2.783719179E0,1.007926930E-2,4.428769462E-3,-7.941242307E-3
2.785844388E0,1.740964688E-2,-4.123337101E-3,-9.162971750E-3
2.787969596E0,1.863137633E-2,-1.145371422E-2,-7.941242307E-3
2.790094804E0,1.618791744E-2,-4.123337101E-3,-9.162971750E-3
2.792220013E0,1.496618707E-2,-1.679878100E-3,-9.162971750E-3
2.794345221E0,1.496618707E-2,-5.345067009E-3,-6.719512399E-3
2.796470429E0,1.374445762E-2,-4.123337101E-3,-9.162971750E-3
2.798595638E0,1.007926930E-2,-7.788525894E-3,-7.941242307E-3
2.800720846E0,1.130099874E-2,-9.010255337E-3,-7.941242307E-3
2.802846054E0,8.857538924E-3,3.207040019E-3,-9.162971750E-3
2.804971263E0,6.414080039E-3,4.428769462E-3,-7.941242307E-3
2.807096471E0,8.857538924E-3,-4.581485991E-4,-1.038470119E-2
2.809221679E0,1.374445762E-2,-1.145371422E-2,-9.162971750E-3
2.811346888E0,1.130099874E-2,-6.566796452E-3,-7.941242307E-3
2.813472096E0,1.007926930E-2,-6.566796452E-3,-6.719512399E-3
2.815597304E0,1.374445762E-2,-6.566796452E-3,-9.162971750E-3
2.817722513E0,1.252272818E-2,-4.123337101E-3,-9.162971750E-3
2.819847721E0,1.007926930E-2,3.207040019E-3,-1.038470119E-2
2.821972929E0,1.252272818E-2,-5.345067009E-3,-9.162971750E-3
2.824098190E0,1.374445762E-2,-7.788525894E-3,-9.162971750E-3
2.826223398E0,1.252272818E-2,-2.901607659E-3,-7.941242307E-3
2.828348554E0,1.130099874E-2,-4.581485991E-4,-7.941242307E-3
2.830473815E0,6.414080039E-3,5.650499370E-3,-1.038470119E-2
2.832599023E0,7.635809947E-3,1.175914705E-2,-1.038470119E-2
2.834724179E0,1.007926930E-2,9.315688163E-3,-9.162971750E-3
2.836849440E0,1.740964688E-2,-2.901607659E-3,-7.941242307E-3
2.838974648E0,1.740964688E-2,-9.010255337E-3,-7.941242307E-3
2.841099856E0,1.374445762E-2,8.093958721E-3,-6.719512399E-3
2.843225065E0,1.252272818E-2,1.664606482E-2,-9.162971750E-3
2.845350273E0,1.863137633E-2,4.428769462E-3,-7.941242307E-3
2.847475481E0,2.351829410E-2,-5.345067009E-3,-5.497782957E-3
2.849600690E0,2.596175298E-2,-5.345067009E-3,-5.497782957E-3
2.851725898E0,2.596175298E-2,-1.267544460E-2,-4.276053514E-3
2.853851106E0,2.351829410E-2,-1.023198478E-2,-4.276053514E-3
2.855976315E0,1.863137633E-2,-4.123337101E-3,-4.276053514E-3
2.858101523E0,1.618791744E-2,5.650499370E-3,-5.497782957E-3
2.860226731E0,1.374445762E-2,-4.581485991E-4,-6.719512399E-3
2.862351940E0,1.740964688E-2,-5.345067009E-3,-5.497782957E-3
2.864477148E0,1.863137633E-2,-1.023198478E-2,-4.276053514E-3
2.866602356E0,2.107483521E-2,-1.634063199E-2,-3.054323839E-3
2.868727565E0,1.496618707E-2,-7.788525894E-3,-6.719512399E-3
2.870852773E0,8.857538924E-3,9.315688163E-3,-7.941242307E-3
2.872977981E0,7.635809947E-3,1.664606482E-2,-6.719512399E-3
2.875103190E0,1.618791744E-2,1.985310577E-3,-6.719512399E-3
2.877228398E0,1.740964688E-2,-7.788525894E-3,-4.276053514E-3
2.879353606E0,1.985310577E-2,-7.788525894E-3,-4.276053514E-3
2.881478815E0,1.863137633E-2,-5.345067009E-3,-4.276053514E-3
2.883604023E0,1.374445762E-2,-1.679878100E-3,-6.719512399E-3
2.885729231E0,1.130099874E-2,6.872228812E-3,-6.719512399E-3
2.887854440E0,1.130099874E-2,4.428769462E-3,-5.497782957E-3
2.889979648E0,1.130099874E-2,-1.679878100E-3,-4.276053514E-3
2.892104856E0,1.252272818E-2,-1.679878100E-3,-3.054323839E-3
2.894230065E0,1.130099874E-2,-4.581485991E-4,-3.054323839E-3
2.896355273E0,7.635809947E-3,1.985310577E-3,-5.497782957E-3
2.898480533E0,6.414080039E-3,5.650499370E-3,-4.276053514E-3
2.900605742E0,3.970621154E-3,1.908952370E-2,-4.276053514E-3
2.902730950E0,8.857538924E-3,9.315688163E-3,-3.054323839E-3
2.904856158E0,1.618791744E-2,-7.788525894E-3,-6.108647794E-4
2.906981367E0,1.863137633E-2,-1.511890348E-2,1.832594397E-3
2.909106575E0,1.130099874E-2,-4.123337101E-3,-1.832594397E-3
2.911231783E0,8.857538924E-3,7.635809598E-4,-6.108647794E-4
2.913356992E0,5.192350596E-3,7.635809598E-4,-1.832594397E-3
2.915482200E0,5.192350596E-3,6.872228812E-3,6.108647794E-4
2.917607408E0,3.970621154E-3,-4.581485991E-4,6.108647794E-4
2.919732617E0,5.192350596E-3,-1.679878100E-3,6.108647794E-4
2.921857825E0,1.527161920E-3,3.207040019E-3,-6.108647794E-4
2.923983033E0,-2.138026757E-3,1.175914705E-2,-6.108647794E-4
2.926108242E0,-9.162971983E-4,4.428769462E-3,-6.108647794E-4
2.928233450E0,3.054323897E-4,-4.123337101E-3,-1.832594397E-3
2.930358658E0,2.748891478E-3,-4.581485991E-4,1.832594397E-3
2.932483867E0,1.527161920E-3,4.428769462E-3,6.108647794E-4
2.934609075E0,8.857538924E-3,-5.345067009E-3,1.832594397E-3
2.936734283E0,1.252272818E-2,-1.389717404E-2,6.108647794E-4
2.938859492E0,1.007926930E-2,-1.145371422E-2,1.832594397E-3
2.940984700E0,7.635809947E-3,-6.566796452E-3,1.832594397E-3
2.943109908E0,3.970621154E-3,-2.901607659E-3,1.832594397E-3
2.945235117E0,6.414080039E-3,1.985310577E-3,1.832594397E-3
2.947360325E0,5.192350596E-3,-1.679878100E-3,1.832594397E-3
2.949485533E0,2.748891478E-3,1.985310577E-3,6.108647794E-4
2.951610742E0,1.527161920E-3,9.315688163E-3,6.108647794E-4
2.953736002E0,1.527161920E-3,1.053741761E-2,6.108647794E-4
2.955861211E0,3.054323897E-4,5.650499370E-3,6.108647794E-4
2.957986419E0,3.970621154E-3,6.872228812E-3,6.108647794E-4
2.960111627E0,1.527161920E-3,1.786779426E-2,6.108647794E-4
2.962236836E0,1.527161920E-3,2.275471389E-2,-6.108647794E-4
2.964362044E0,8.857538924E-3,1.053741761E-2,6.108647794E-4
2.966487252E0,1.252272818E-2,6.872228812E-3,6.108647794E-4
2.968612461E0,1.252272818E-2,5.650499370E-3,1.832594397E-3
2.970737669E0,1.007926930E-2,-1.679878100E-3,3.054323839E-3
2.972862877E0,3.970621154E-3,3.207040019E-3,1.832594397E-3
2.974988086E0,-9.162971983E-4,1.298087649E-2,1.832594397E-3
2.977113294E0,-3.359756200E-3,1.542433538E-2,-6.108647794E-4
2.979238502E0,-2.138026757E-3,1.175914705E-2,6.108647794E-4
2.981363711E0,3.054323897E-4,6.872228812E-3,6.108647794E-4
2.983488919E0,3.054323897E-4,6.872228812E-3,3.054323839E-3
2.985614127E0,3.054323897E-4,4.428769462E-3,1.832594397E-3
2.987739336E0,-2.138026757E-3,5.650499370E-3,6.108647794E-4
2.989864544E0,-5.803215317E-3,1.908952370E-2,-6.108647794E-4
2.991989752E0,-2.138026757E-3,1.908952370E-2,6.108647794E-4
2.994114961E0,2.748891478E-3,9.315688163E-3,6.108647794E-4
2.996240169E0,7.635809947E-3,4.428769462E-3,4.276053514E-3
2.998365377E0,7.635809947E-3,-2.901607659E-3,4.276053514E-3
3.000490586E0,7.635809947E-3,-4.581485991E-4,1.832594397E-3
3.002615794E0,2.748891478E-3,9.315688163E-3,-6.108647794E-4
3.004741002E0,-9.162971983E-4,2.031125315E-2,-6.108647794E-4
3.006866211E0,-2.138026757E-3,1.786779426E-2,1.832594397E-3
3.008991419E0,-2.138026757E-3,1.175914705E-2,6.108647794E-4
3.011116679E0,1.527161920E-3,1.053741761E-2,3.054323839E-3
3.013241836E0,3.054323897E-4,1.298087649E-2,3.054323839E-3
3.015367044E0,-4.581485875E-3,2.031125315E-2,1.832594397E-3
3.017492304E0,-5.803215317E-3,2.886336111E-2,-6.108647794E-4
3.019617513E0,-5.803215317E-3,3.130681813E-2,-6.108647794E-4
3.021742721E0,3.054323897E-4,2.519817278E-2,1.832594397E-3
3.023867929E0,6.414080039E-3,5.650499370E-3,1.832594397E-3
3.025993138E0,1.130099874E-2,-5.345067009E-3,5.497782957E-3
3.028118346E0,8.857538924E-3,4.428769462E-3,5.497782957E-3
3.030243554E0,3.970621154E-3,8.093958721E-3,4.276053514E-3
3.032368763E0,1.527161920E-3,9.315688163E-3,3.054323839E-3
3.034493971E0,1.527161920E-3,4.428769462E-3,4.276053514E-3
3.036619179E0,3.054323897E-4,1.985310577E-3,4.276053514E-3
3.038744388E0,-9.162971983E-4,-4.581485991E-4,4.276053514E-3
3.040869596E0,-9.162971983E-4,-4.581485991E-4,5.497782957E-3
3.042994804E0,-3.359756200E-3,4.428769462E-3,3.054323839E-3
3.045120013E0,-7.024944760E-3,1.053741761E-2,1.832594397E-3
3.047245221E0,-8.246674202E-3,1.175914705E-2,6.108647794E-4
3.049370429E0,-4.581485875E-3,1.175914705E-2,1.832594397E-3
3.051495638E0,-3.359756200E-3,8.093958721E-3,6.108647794E-4
3.053620846E0,3.054323897E-4,1.985310577E-3,6.108647794E-4
3.055746054E0,2.748891478E-3,1.985310577E-3,6.108647794E-4
3.057871263E0,2.748891478E-3,5.650499370E-3,6.108647794E-4
3.059996471E0,1.527161920E-3,5.650499370E-3,-6.108647794E-4
3.062121679E0,-9.162971983E-4,1.053741761E-2,-6.108647794E-4
3.064246888E0,3.054323897E-4,8.093958721E-3,6.108647794E-4
3.066372096E0,1.527161920E-3,5.650499370E-3,1.832594397E-3
3.068497304E0,-2.138026757E-3,9.315688163E-3,6.108647794E-4
3.070622565E0,-3.359756200E-3,1.664606482E-2,-6.108647794E-4
3.072747773E0,-5.803215317E-3,2.275471389E-2,6.108647794E-4
3.074872981E0,-4.581485875E-3,2.397644334E-2,-6.108647794E-4
3.076998190E0,-3.359756200E-3,1.786779426E-2,6.108647794E-4
3.079123398E0,-2.138026757E-3,2.275471389E-2,6.108647794E-4
3.081248606E0,3.054323897E-4,2.031125315E-2,-6.108647794E-4
3.083373815E0,5.192350596E-3,1.298087649E-2,-6.108647794E-4
3.085499023E0,8.857538924E-3,4.428769462E-3,1.832594397E-3
3.087624231E0,8.857538924E-3,5.650499370E-3,1.832594397E-3
3.089749440E0,1.007926930E-2,-4.581485991E-4,3.054323839E-3
3.091874648E0,6.414080039E-3,-1.679878100E-3,4.276053514E-3
3.093999856E0,5.192350596E-3,1.985310577E-3,3.054323839E-3
3.096125065E0,2.748891478E-3,3.207040019E-3,1.832594397E-3
3.098250273E0,-9.162971983E-4,5.650499370E-3,1.832594397E-3
3.100375481E0,-4.581485875E-3,9.315688163E-3,1.832594397E-3
3.102500690E0,-3.359756200E-3,3.207040019E-3,6.108647794E-4
3.104625898E0,-9.162971983E-4,-5.345067009E-3,3.054323839E-3
3.106751106E0,-4.581485875E-3,-4.581485991E-4,6.108647794E-4
3.108876315E0,-1.191186346E-2,1.298087649E-2,-6.108647794E-4
3.111001523E0,-8.246674202E-3,1.664606482E-2,-1.832594397E-3
3.113126731E0,-4.581485875E-3,5.650499370E-3,-6.108647794E-4
3.115251940E0,1.527161920E-3,5.650499370E-3,1.832594397E-3
3.117377148E0,5.192350596E-3,-2.901607659E-3,3.054323839E-3
3.119502356E0,6.414080039E-3,-5.345067009E-3,3.054323839E-3
3.121627565E0,-9.162971983E-4,5.650499370E-3,1.832594397E-3
3.123752773E0,-4.581485875E-3,1.908952370E-2,6.108647794E-4
3.125877981E0,-8.246674202E-3,2.031125315E-2,6.108647794E-4
3.128003242E0,-3.359756200E-3,1.298087649E-2,6.108647794E-4
3.130128450E0,-2.138026757E-3,1.053741761E-2,6.108647794E-4
3.132253658E0,-3.359756200E-3,1.420260593E-2,6.108647794E-4
3.134378867E0,-5.803215317E-3,1.664606482E-2,6.108647794E-4
3.136504075E0,-7.024944760E-3,2.519817278E-2,-6.108647794E-4
3.138629283E0,-8.246674202E-3,3.497200832E-2,-6.108647794E-4
3.140754492E0,-4.581485875E-3,3.008509055E-2,-6.108647794E-4
3.142879700E0,1.527161920E-3,9.315688163E-3,1.832594397E-3
3.145004908E0,6.414080039E-3,-2.901607659E-3,4.276053514E-3
3.147130117E0,3.970621154E-3,-1.679878100E-3,5.497782957E-3
3.149255325E0,-3.359756200E-3,4.428769462E-3,3.054323839E-3
3.151380533E0,-7.024944760E-3,9.315688163E-3,1.832594397E-3
3.153505742E0,-7.024944760E-3,6.872228812E-3,3.054323839E-3
3.155630950E0,-7.024944760E-3,3.207040019E-3,1.832594397E-3
3.157756158E0,-5.803215317E-3,-4.123337101E-3,3.054323839E-3
3.159881367E0,-8.246674202E-3,-1.023198478E-2,4.276053514E-3
3.162006575E0,-8.246674202E-3,-6.566796452E-3,4.276053514E-3
3.164131783E0,-1.069013402E-2,-2.901607659E-3,1.832594397E-3
3.166256992E0,-9.468403645E-3,-4.581485991E-4,1.832594397E-3
3.168382200E0,-1.069013402E-2,-2.901607659E-3,1.832594397E-3
3.170507408E0,-5.803215317E-3,-5.345067009E-3,4.276053514E-3
3.172632617E0,-3.359756200E-3,-1.389717404E-2,3.054323839E-3
3.174757825E0,-2.138026757E-3,-1.267544460E-2,4.276053514E-3
3.176883086E0,-7.024944760E-3,-1.023198478E-2,1.832594397E-3
3.179008242E0,-9.468403645E-3,-6.566796452E-3,1.832594397E-3
3.181133502E0,-1.069013402E-2,1.985310577E-3,1.832594397E-3
3.183258711E0,-4.581485875E-3,-1.679878100E-3,3.054323839E-3
3.185383919E0,-4.581485875E-3,-7.788525894E-3,3.054323839E-3
3.187509127E0,-4.581485875E-3,-7.788525894E-3,1.832594397E-3
3.189634336E0,-7.024944760E-3,7.635809598E-4,1.832594397E-3
3.191759544E0,-9.468403645E-3,6.872228812E-3,3.054323839E-3
3.193884752E0,-9.468403645E-3,6.872228812E-3,1.832594397E-3
3.196009961E0,-9.468403645E-3,4.428769462E-3,1.832594397E-3
3.198135117E0,-8.246674202E-3,9.315688163E-3,5.497782957E-3
3.200260377E0,-2.138026757E-3,8.093958721E-3,4.276053514E-3
3.202385586E0,1.527161920E-3,-2.901607659E-3,4.276053514E-3
3.204510794E0,2.748891478E-3,-9.010255337E-3,5.497782957E-3
3.206636002E0,2.748891478E-3,-6.566796452E-3,6.719512399E-3
3.208761211E0,3.054323897E-4,-1.023198478E-2,6.719512399E-3
3.210886419E0,-3.359756200E-3,-9.010255337E-3,6.719512399E-3
3.213011627E0,-4.581485875E-3,-1.023198478E-2,6.719512399E-3
3.215136836E0,-9.468403645E-3,-6.566796452E-3,5.497782957E-3
3.217262044E0,-1.313359290E-2,-4.581485991E-4,4.276053514E-3
3.219387252E0,-1.313359290E-2,-1.679878100E-3,4.276053514E-3
3.221512461E0,-9.468403645E-3,-1.023198478E-2,5.497782957E-3
3.223637669E0,-1.069013402E-2,-1.267544460E-2,6.719512399E-3
3.225762877E0,-1.069013402E-2,-9.010255337E-3,5.497782957E-3
3.227888086E0,-1.069013402E-2,-4.123337101E-3,5.497782957E-3
3.230013294E0,-1.191186346E-2,5.650499370E-3,1.832594397E-3
3.232138554E0,-8.246674202E-3,7.635809598E-4,1.832594397E-3
3.234263711E0,-2.138026757E-3,-1.267544460E-2,4.276053514E-3
3.236388971E0,1.527161920E-3,-2.367101051E-2,5.497782957E-3
3.238514179E0,3.054323897E-4,-2.489273995E-2,5.497782957E-3
3.240639388E0,-2.138026757E-3,-1.389717404E-2,4.276053514E-3
3.242764596E0,-7.024944760E-3,4.428769462E-3,3.054323839E-3
3.244889804E0,-8.246674202E-3,4.428769462E-3,1.832594397E-3
3.247015013E0,-3.359756200E-3,-5.345067009E-3,4.276053514E-3
3.249140221E0,3.054323897E-4,-7.788525894E-3,4.276053514E-3
3.251265429E0,-9.162971983E-4,-6.566796452E-3,4.276053514E-3
3.253390638E0,-9.162971983E-4,-4.123337101E-3,4.276053514E-3
3.255515846E0,-4.581485875E-3,9.315688163E-3,3.054323839E-3
3.257641054E0,-5.803215317E-3,1.664606482E-2,3.054323839E-3
3.259766263E0,1.527161920E-3,8.093958721E-3,3.054323839E-3
3.261891471E0,1.007926930E-2,-1.634063199E-2,3.054323839E-3
3.264016679E0,1.374445762E-2,-2.000582218E-2,5.497782957E-3
3.266141888E0,8.857538924E-3,-1.389717404E-2,6.719512399E-3
3.268267096E0,6.414080039E-3,-5.345067009E-3,5.497782957E-3
3.270392304E0,5.192350596E-3,-2.901607659E-3,5.497782957E-3
3.272517513E0,3.054323897E-4,7.635809598E-4,5.497782957E-3
3.274642721E0,1.527161920E-3,-1.679878100E-3,5.497782957E-3
3.276767929E0,1.527161920E-3,-1.389717404E-2,5.497782957E-3
3.278893138E0,3.970621154E-3,-2.122755162E-2,6.719512399E-3
3.281018346E0,3.054323897E-4,-7.788525894E-3,7.941242307E-3
3.283143554E0,-5.803215317E-3,7.635809598E-4,5.497782957E-3
3.285268815E0,-7.024944760E-3,1.985310577E-3,4.276053514E-3
3.287394023E0,-3.359756200E-3,-4.581485991E-4,4.276053514E-3
3.289519231E0,-9.162971983E-4,-6.566796452E-3,5.497782957E-3
3.291644440E0,2.748891478E-3,-1.389717404E-2,5.497782957E-3
3.293769648E0,3.970621154E-3,-1.878409274E-2,6.719512399E-3
3.295894804E0,-9.162971983E-4,-1.389717404E-2,5.497782957E-3
3.298020065E0,-2.138026757E-3,-1.023198478E-2,4.276053514E-3
3.300145273E0,-5.803215317E-3,-2.901607659E-3,4.276053514E-3
3.302270481E0,-5.803215317E-3,-2.901607659E-3,4.276053514E-3
3.304395690E0,-4.581485875E-3,-9.010255337E-3,5.497782957E-3
3.306520898E0,-4.581485875E-3,-1.511890348E-2,5.497782957E-3
3.308646106E0,-8.246674202E-3,-6.566796452E-3,3.054323839E-3
3.310771315E0,-1.069013402E-2,6.872228812E-3,3.054323839E-3
3.312896523E0,-9.468403645E-3,4.428769462E-3,1.832594397E-3
3.315021731E0,-7.024944760E-3,4.428769462E-3,1.832594397E-3
3.317146940E0,-5.803215317E-3,8.093958721E-3,3.054323839E-3
3.319272148E0,3.054323897E-4,3.207040019E-3,3.054323839E-3
3.321397356E0,5.192350596E-3,-9.010255337E-3,5.497782957E-3
3.323522617E0,5.192350596E-3,-6.566796452E-3,4.276053514E-3
3.325647825E0,3.970621154E-3,1.985310577E-3,4.276053514E-3
3.327772981E0,5.192350596E-3,-1.679878100E-3,5.497782957E-3
3.329898242E0,6.414080039E-3,-5.345067009E-3,5.497782957E-3
3.332023450E0,6.414080039E-3,-5.345067009E-3,5.497782957E-3
3.334148658E0,5.192350596E-3,-5.345067009E-3,5.497782957E-3
3.336273867E0,1.527161920E-3,-7.788525894E-3,1.832594397E-3
3.338399075E0,-9.162971983E-4,3.207040019E-3,3.054323839E-3
3.340524283E0,-3.359756200E-3,3.207040019E-3,3.054323839E-3
3.342649492E0,-2.138026757E-3,-2.901607659E-3,3.054323839E-3
3.344774700E0,-9.162971983E-4,-2.901607659E-3,3.054323839E-3
3.346899908E0,-3.359756200E-3,3.207040019E-3,3.054323839E-3
3.349025117E0,-9.162971983E-4,5.650499370E-3,3.054323839E-3
3.351150325E0,-9.162971983E-4,7.635809598E-4,6.108647794E-4
3.353275533E0,2.748891478E-3,1.985310577E-3,3.054323839E-3
3.355400742E0,5.192350596E-3,-5.345067009E-3,4.276053514E-3
3.357525950E0,7.635809947E-3,-2.122755162E-2,5.497782957E-3
3.359651158E0,3.970621154E-3,-1.267544460E-2,4.276053514E-3
3.361776367E0,3.054323897E-4,-4.581485991E-4,3.054323839E-3
3.363901575E0,-3.359756200E-3,-4.581485991E-4,1.832594397E-3
3.366026783E0,-5.803215317E-3,-2.901607659E-3,3.054323839E-3
3.368151992E0,-4.581485875E-3,1.985310577E-3,3.054323839E-3
3.370277200E0,-3.359756200E-3,-2.901607659E-3,5.497782957E-3
3.372402408E0,-5.803215317E-3,-5.345067009E-3,4.276053514E-3
3.374527617E0,-1.069013402E-2,3.207040019E-3,4.276053514E-3
3.376652877E0,-1.435532235E-2,2.153298259E-2,3.054323839E-3
3.378778086E0,-1.313359290E-2,2.031125315E-2,4.276053514E-3
3.380903294E0,-5.803215317E-3,7.635809598E-4,4.276053514E-3
3.383028502E0,-2.138026757E-3,-1.145371422E-2,7.941242307E-3
3.385153711E0,-9.162971983E-4,-1.267544460E-2,9.162971750E-3
3.387278919E0,-3.359756200E-3,-1.389717404E-2,7.941242307E-3
3.389404127E0,-1.069013402E-2,7.635809598E-4,6.719512399E-3
3.391529336E0,-1.313359290E-2,8.093958721E-3,6.719512399E-3
3.393654544E0,-1.313359290E-2,5.650499370E-3,5.497782957E-3
3.395779752E0,-1.191186346E-2,-2.901607659E-3,7.941242307E-3
3.397904961E0,-9.468403645E-3,-7.788525894E-3,7.941242307E-3
3.400030169E0,-1.069013402E-2,-1.023198478E-2,7.941242307E-3
3.402155377E0,-1.435532235E-2,5.650499370E-3,4.276053514E-3
3.404280586E0,-1.924224012E-2,1.908952370E-2,1.832594397E-3
3.406405794E0,-1.679878123E-2,2.031125315E-2,4.276053514E-3
3.408531002E0,-7.024944760E-3,-6.566796452E-3,4.276053514E-3
3.410656211E0,3.970621154E-3,-2.855792828E-2,5.497782957E-3
3.412781419E0,1.527161920E-3,-2.244928107E-2,7.941242307E-3
3.414906627E0,-3.359756200E-3,-9.010255337E-3,6.719512399E-3
3.417031836E0,-5.803215317E-3,-1.679878100E-3,5.497782957E-3
3.419157044E0,-4.581485875E-3,7.635809598E-4,4.276053514E-3
3.421282304E0,-9.162971983E-4,-6.566796452E-3,6.719512399E-3
3.423407513E0,2.748891478E-3,-1.511890348E-2,5.497782957E-3
3.425532721E0,3.970621154E-3,-2.000582218E-2,6.719512399E-3
3.427657929E0,1.527161920E-3,-1.511890348E-2,5.497782957E-3
3.429783138E0,-2.138026757E-3,-4.123337101E-3,5.497782957E-3
3.431908346E0,-5.803215317E-3,1.985310577E-3,3.054323839E-3
3.434033554E0,-4.581485875E-3,1.175914705E-2,3.054323839E-3
3.436158763E0,-9.162971983E-4,1.175914705E-2,5.497782957E-3
3.438283971E0,3.970621154E-3,7.635809598E-4,6.108647794E-4
3.440409179E0,5.192350596E-3,-5.345067009E-3,6.719512399E-3
3.442534388E0,3.970621154E-3,1.985310577E-3,3.054323839E-3
3.444659596E0,2.748891478E-3,1.985310577E-3,5.497782957E-3
3.446784804E0,1.527161920E-3,-2.901607659E-3,4.276053514E-3
3.448910013E0,3.970621154E-3,-2.901607659E-3,5.497782957E-3
3.451035221E0,1.527161920E-3,-1.145371422E-2,7.941242307E-3
3.453160429E0,2.748891478E-3,-1.023198478E-2,6.719512399E-3
3.455285638E0,-4.581485875E-3,-7.788525894E-3,5.497782957E-3
3.457410846E0,-7.024944760E-3,3.207040019E-3,4.276053514E-3
3.459536054E0,-8.246674202E-3,-2.901607659E-3,5.497782957E-3
3.461661263E0,-7.024944760E-3,-1.267544460E-2,4.276053514E-3
3.463786523E0,-7.024944760E-3,-7.788525894E-3,6.719512399E-3
3.465911731E0,-9.468403645E-3,-4.581485991E-4,5.497782957E-3
3.468036940E0,-8.246674202E-3,-4.123337101E-3,5.497782957E-3
3.470162148E0,-5.803215317E-3,-4.123337101E-3,4.276053514E-3
3.472287356E0,-3.359756200E-3,-1.679878100E-3,6.719512399E-3
3.474412565E0,3.054323897E-4,-1.145371422E-2,5.497782957E-3
3.476537773E0,2.748891478E-3,-1.511890348E-2,6.719512399E-3
3.478662981E0,-9.162971983E-4,-1.634063199E-2,5.497782957E-3
3.480788190E0,-2.138026757E-3,-5.345067009E-3,6.719512399E-3
3.482913398E0,-3.359756200E-3,-4.581485991E-4,5.497782957E-3
3.485038606E0,-2.138026757E-3,-1.679878100E-3,5.497782957E-3
3.487163815E0,3.054323897E-4,-2.901607659E-3,7.941242307E-3
3.489289023E0,1.527161920E-3,-1.023198478E-2,6.719512399E-3
3.491414231E0,1.527161920E-3,-1.145371422E-2,7.941242307E-3
3.493539440E0,-2.138026757E-3,8.093958721E-3,4.276053514E-3
3.495664648E0,-5.803215317E-3,1.908952370E-2,4.276053514E-3
3.497789856E0,-4.581485875E-3,1.908952370E-2,1.832594397E-3
3.499915065E0,2.748891478E-3,9.315688163E-3,3.054323839E-3
3.502040273E0,6.414080039E-3,-2.901607659E-3,6.719512399E-3
3.504165481E0,5.192350596E-3,-6.566796452E-3,5.497782957E-3
3.506290690E0,3.970621154E-3,-6.566796452E-3,6.719512399E-3
3.508415898E0,1.527161920E-3,4.428769462E-3,4.276053514E-3
3.510541106E0,-2.138026757E-3,9.315688163E-3,4.276053514E-3
3.512666367E0,-4.581485875E-3,1.175914705E-2,3.054323839E-3
3.514791575E0,-2.138026757E-3,-4.581485991E-4,5.497782957E-3
3.516916783E0,1.527161920E-3,-1.023198478E-2,5.497782957E-3
3.519041992E0,1.527161920E-3,-1.267544460E-2,6.719512399E-3
3.521167200E0,-9.162971983E-4,-1.679878100E-3,4.276053514E-3
3.523292408E0,-5.803215317E-3,9.315688163E-3,1.832594397E-3
3.525417617E0,-4.581485875E-3,1.298087649E-2,1.832594397E-3
3.527542825E0,-2.138026757E-3,3.207040019E-3,3.054323839E-3
3.529668033E0,7.635809947E-3,-1.511890348E-2,4.276053514E-3
3.531793242E0,7.635809947E-3,-2.733619884E-2,6.719512399E-3
3.533918450E0,5.192350596E-3,-1.389717404E-2,5.497782957E-3
3.536043658E0,-2.138026757E-3,-6.566796452E-3,4.276053514E-3
3.538168867E0,-5.803215317E-3,9.315688163E-3,3.054323839E-3
3.540294075E0,-5.803215317E-3,9.315688163E-3,4.276053514E-3
3.542419283E0,-9.162971983E-4,-2.901607659E-3,4.276053514E-3
3.544544492E0,2.748891478E-3,-9.010255337E-3,6.719512399E-3
3.546669752E0,1.527161920E-3,-5.345067009E-3,6.719512399E-3
3.548794961E0,-9.162971983E-4,-1.679878100E-3,6.719512399E-3
3.550920169E0,-2.138026757E-3,6.872228812E-3,1.832594397E-3
3.553045377E0,-4.581485875E-3,1.542433538E-2,4.276053514E-3
3.555170586E0,-2.138026757E-3,2.275471389E-2,5.497782957E-3
3.557295794E0,1.527161920E-3,1.298087649E-2,5.497782957E-3
3.559421002E0,7.635809947E-3,-4.123337101E-3,5.497782957E-3
3.561546211E0,1.007926930E-2,-4.123337101E-3,4.276053514E-3
3.563671419E0,5.192350596E-3,5.650499370E-3,4.276053514E-3
3.565796627E0,2.748891478E-3,9.315688163E-3,3.054323839E-3
3.567921836E0,5.192350596E-3,7.635809598E-4,4.276053514E-3
3.570047044E0,7.635809947E-3,-9.010255337E-3,6.719512399E-3
3.572172252E0,7.635809947E-3,-7.788525894E-3,5.497782957E-3
3.574297461E0,5.192350596E-3,-5.345067009E-3,5.497782957E-3
3.576422669E0,2.748891478E-3,7.635809598E-4,4.276053514E-3
3.578547877E0,2.748891478E-3,7.635809598E-4,3.054323839E-3
3.580673086E0,2.748891478E-3,-1.679878100E-3,5.497782957E-3
3.582798294E0,5.192350596E-3,-4.581485991E-4,4.276053514E-3
3.584923502E0,5.192350596E-3,-4.581485991E-4,4.276053514E-3
3.587048711E0,5.192350596E-3,1.985310577E-3,3.054323839E-3
3.589173919E0,3.970621154E-3,1.985310577E-3,1.832594397E-3
3.591299127E0,6.414080039E-3,5.650499370E-3,3.054323839E-3
3.593424388E0,5.192350596E-3,5.650499370E-3,3.054323839E-3
3.595549544E0,1.007926930E-2,-2.901607659E-3,3.054323839E-3
3.597674804E0,1.130099874E-2,-1.679878100E-3,3.054323839E-3
3.599800013E0,8.857538924E-3,6.872228812E-3,4.276053514E-3
3.601925221E0,5.192350596E-3,1.053741761E-2,6.108647794E-4
3.604050429E0,5.192350596E-3,1.175914705E-2,3.054323839E-3
3.606175638E0,5.192350596E-3,9.315688163E-3,3.054323839E-3
3.608300846E0,6.414080039E-3,1.053741761E-2,3.054323839E-3
3.610426054E0,6.414080039E-3,1.298087649E-2,3.054323839E-3
3.612551263E0,3.054323897E-4,1.786779426E-2,1.832594397E-3
3.614676471E0,3.054323897E-4,3.008509055E-2,1.832594397E-3
3.616801679E0,5.192350596E-3,2.397644334E-2,1.832594397E-3
3.618926888E0,1.007926930E-2,9.315688163E-3,3.054323839E-3
3.621052096E0,1.374445762E-2,1.985310577E-3,6.719512399E-3
3.623177304E0,1.252272818E-2,1.985310577E-3,7.941242307E-3
3.625302513E0,8.857538924E-3,-4.581485991E-4,6.719512399E-3
3.627427721E0,5.192350596E-3,6.872228812E-3,6.719512399E-3
3.629552929E0,1.527161920E-3,1.542433538E-2,5.497782957E-3
3.631678190E0,1.527161920E-3,5.650499370E-3,4.276053514E-3
3.633803398E0,5.192350596E-3,-4.123337101E-3,5.497782957E-3
3.635928606E0,5.192350596E-3,-6.566796452E-3,6.719512399E-3
3.638053815E0,3.970621154E-3,-6.566796452E-3,7.941242307E-3
3.640179023E0,3.970621154E-3,-2.901607659E-3,4.276053514E-3
3.642304231E0,3.054323897E-4,6.872228812E-3,3.054323839E-3
3.644429440E0,-2.138026757E-3,1.542433538E-2,1.832594397E-3
3.646554648E0,3.970621154E-3,1.053741761E-2,3.054323839E-3
3.648679856E0,1.007926930E-2,-1.511890348E-2,4.276053514E-3
3.650805065E0,1.374445762E-2,-1.756236330E-2,5.497782957E-3
3.652930273E0,1.007926930E-2,-1.023198478E-2,5.497782957E-3
3.655055481E0,2.748891478E-3,1.985310577E-3,4.276053514E-3
3.657180690E0,2.748891478E-3,1.053741761E-2,1.832594397E-3
3.659305898E0,3.970621154E-3,9.315688163E-3,1.832594397E-3
3.661431106E0,8.857538924E-3,-4.581485991E-4,3.054323839E-3
3.663556315E0,8.857538924E-3,-1.023198478E-2,3.054323839E-3
3.665681523E0,7.635809947E-3,-4.123337101E-3,3.054323839E-3
3.667806783E0,1.527161920E-3,8.093958721E-3,3.054323839E-3
3.669931940E0,1.527161920E-3,2.153298259E-2,1.832594397E-3
3.672057148E0,-9.162971983E-4,3.008509055E-2,1.832594397E-3
3.674182408E0,1.527161920E-3,3.008509055E-2,1.832594397E-3
3.676307617E0,1.252272818E-2,1.175914705E-2,4.276053514E-3
3.678432825E0,2.229656465E-2,-1.023198478E-2,5.497782957E-3
3.680558033E0,1.985310577E-2,-6.566796452E-3,5.497782957E-3
3.682683242E0,1.374445762E-2,4.428769462E-3,4.276053514E-3
3.684808450E0,1.130099874E-2,8.093958721E-3,5.497782957E-3
3.686933658E0,1.374445762E-2,7.635809598E-4,5.497782957E-3
3.689058867E0,1.496618707E-2,-6.566796452E-3,5.497782957E-3
3.691184075E0,1.252272818E-2,-1.267544460E-2,5.497782957E-3
3.693309283E0,6.414080039E-3,-1.023198478E-2,5.497782957E-3
3.695434492E0,1.527161920E-3,5.650499370E-3,4.276053514E-3
3.697559700E0,1.527161920E-3,1.298087649E-2,3.054323839E-3
3.699684908E0,1.527161920E-3,1.985310577E-3,3.054323839E-3
3.701810117E0,3.970621154E-3,-4.581485991E-4,4.276053514E-3
3.703935325E0,3.970621154E-3,5.650499370E-3,5.497782957E-3
3.706060533E0,8.857538924E-3,-5.345067009E-3,3.054323839E-3
3.708185742E0,1.007926930E-2,-7.788525894E-3,4.276053514E-3
3.710311002E0,1.007926930E-2,4.428769462E-3,4.276053514E-3
3.712436211E0,8.857538924E-3,6.872228812E-3,4.276053514E-3
3.714561419E0,1.374445762E-2,-1.679878100E-3,5.497782957E-3
3.716686627E0,1.740964688E-2,-9.010255337E-3,5.497782957E-3
3.718811836E0,1.740964688E-2,-6.566796452E-3,5.497782957E-3
3.720937044E0,1.252272818E-2,7.635809598E-4,5.497782957E-3
3.723062252E0,7.635809947E-3,6.872228812E-3,3.054323839E-3
3.725187461E0,7.635809947E-3,1.298087649E-2,4.276053514E-3
3.727312669E0,1.007926930E-2,8.093958721E-3,4.276053514E-3
3.729437877E0,1.252272818E-2,4.428769462E-3,4.276053514E-3
3.731563086E0,1.130099874E-2,1.298087649E-2,4.276053514E-3
3.733688294E0,7.635809947E-3,2.153298259E-2,4.276053514E-3
3.735813502E0,1.007926930E-2,1.664606482E-2,3.054323839E-3
3.737938711E0,1.496618707E-2,1.985310577E-3,3.054323839E-3
3.740063919E0,1.618791744E-2,-2.901607659E-3,5.497782957E-3
3.742189127E0,1.374445762E-2,-2.901607659E-3,5.497782957E-3
3.744314336E0,1.374445762E-2,-5.345067009E-3,6.719512399E-3
3.746439544E0,1.130099874E-2,-2.901607659E-3,5.497782957E-3
3.748564804E0,7.635809947E-3,3.207040019E-3,4.276053514E-3
3.750690013E0,5.192350596E-3,5.650499370E-3,4.276053514E-3
3.752815221E0,5.192350596E-3,7.635809598E-4,5.497782957E-3
3.754940429E0,7.635809947E-3,-5.345067009E-3,5.497782957E-3
3.757065638E0,6.414080039E-3,-7.788525894E-3,6.719512399E-3
3.759190846E0,3.970621154E-3,-6.566796452E-3,5.497782957E-3
3.761316054E0,-3.359756200E-3,8.093958721E-3,3.054323839E-3
3.763441263E0,-4.581485875E-3,1.542433538E-2,6.108647794E-4
3.765566471E0,5.192350596E-3,-1.679878100E-3,1.832594397E-3
3.767691679E0,1.007926930E-2,-1.756236330E-2,6.108647794E-4
3.769816888E0,1.374445762E-2,-2.244928107E-2,4.276053514E-3
3.771942096E0,6.414080039E-3,-1.389717404E-2,5.497782957E-3
3.774067304E0,3.054323897E-4,5.650499370E-3,3.054323839E-3
3.776192513E0,-9.162971983E-4,1.053741761E-2,3.054323839E-3
3.778317721E0,2.748891478E-3,4.428769462E-3,1.832594397E-3
3.780442929E0,6.414080039E-3,-9.010255337E-3,1.832594397E-3
3.782568138E0,7.635809947E-3,-1.267544460E-2,5.497782957E-3
3.784693346E0,7.635809947E-3,-2.901607659E-3,6.719512399E-3
3.786818606E0,5.192350596E-3,4.428769462E-3,6.719512399E-3
3.788943815E0,2.748891478E-3,1.175914705E-2,4.276053514E-3
3.791069023E0,2.748891478E-3,1.664606482E-2,3.054323839E-3
3.793194231E0,3.970621154E-3,1.420260593E-2,3.054323839E-3
3.795319440E0,1.252272818E-2,1.985310577E-3,3.054323839E-3
3.797444648E0,1.618791744E-2,-1.511890348E-2,5.497782957E-3
3.799569856E0,1.618791744E-2,-9.010255337E-3,6.719512399E-3
3.801695065E0,7.635809947E-3,-2.901607659E-3,5.497782957E-3
3.803820273E0,6.414080039E-3,7.635809598E-4,6.719512399E-3
3.805945481E0,5.192350596E-3,3.207040019E-3,6.719512399E-3
3.808070690E0,5.192350596E-3,-6.566796452E-3,5.497782957E-3
3.810195898E0,3.970621154E-3,-1.145371422E-2,4.276053514E-3
3.812321106E0,2.748891478E-3,-1.145371422E-2,6.719512399E-3
3.814446315E0,1.527161920E-3,-9.010255337E-3,5.497782957E-3
3.816571523E0,-2.138026757E-3,-1.679878100E-3,3.054323839E-3
3.818696679E0,-7.024944760E-3,4.428769462E-3,3.054323839E-3
3.820821940E0,-4.581485875E-3,4.428769462E-3,1.832594397E-3
3.822947200E0,-9.162971983E-4,-4.123337101E-3,4.276053514E-3
3.825072461E0,3.054323897E-4,-1.511890348E-2,3.054323839E-3
3.827197617E0,1.527161920E-3,-1.145371422E-2,3.054323839E-3
3.829322825E0,1.527161920E-3,-4.581485991E-4,4.276053514E-3
3.831448033E0,1.527161920E-3,-6.566796452E-3,4.276053514E-3
3.833573242E0,1.527161920E-3,-1.267544460E-2,3.054323839E-3
3.835698450E0,1.527161920E-3,-1.145371422E-2,3.054323839E-3
3.837823658E0,3.054323897E-4,-7.788525894E-3,5.497782957E-3
3.839948867E0,3.054323897E-4,-1.145371422E-2,4.276053514E-3
3.842074075E0,-2.138026757E-3,-7.788525894E-3,4.276053514E-3
3.844199283E0,-4.581485875E-3,1.985310577E-3,4.276053514E-3
3.846324492E0,-2.138026757E-3,1.985310577E-3,4.276053514E-3
3.848449700E0,-3.359756200E-3,1.985310577E-3,5.497782957E-3
3.850574908E0,-9.162971983E-4,3.207040019E-3,4.276053514E-3
3.852700169E0,-2.138026757E-3,8.093958721E-3,4.276053514E-3
3.854825325E0,-3.359756200E-3,5.650499370E-3,3.054323839E-3
3.856950586E0,3.054323897E-4,3.207040019E-3,4.276053514E-3
3.859075794E0,-9.162971983E-4,-1.679878100E-3,5.497782957E-3
3.861201002E0,1.527161920E-3,-6.566796452E-3,6.719512399E-3
3.863326211E0,1.527161920E-3,-6.566796452E-3,7.941242307E-3
3.865451419E0,3.054323897E-4,-7.788525894E-3,6.719512399E-3
3.867576627E0,-4.581485875E-3,-5.345067009E-3,7.941242307E-3
3.869701836E0,-8.246674202E-3,-2.901607659E-3,5.497782957E-3
3.871827044E0,-8.246674202E-3,-2.901607659E-3,6.719512399E-3
3.873952252E0,-8.246674202E-3,-5.345067009E-3,5.497782957E-3
3.876077461E0,-7.024944760E-3,-6.566796452E-3,7.941242307E-3
3.878202669E0,-7.024944760E-3,-1.145371422E-2,7.941242307E-3
3.880327877E0,-9.468403645E-3,-5.345067009E-3,5.497782957E-3
3.882453086E0,-1.069013402E-2,7.635809598E-4,6.719512399E-3
3.884578294E0,-9.468403645E-3,-6.566796452E-3,4.276053514E-3
3.886703502E0,-5.803215317E-3,-1.389717404E-2,5.497782957E-3
3.888828763E0,-5.803215317E-3,-1.511890348E-2,6.719512399E-3
3.890953919E0,-8.246674202E-3,-1.634063199E-2,6.719512399E-3
3.893079179E0,-1.069013402E-2,-1.267544460E-2,6.719512399E-3
3.895204388E0,-1.191186346E-2,-6.566796452E-3,6.719512399E-3
3.897329596E0,-1.069013402E-2,-6.566796452E-3,6.719512399E-3
3.899454804E0,-1.069013402E-2,-9.010255337E-3,6.719512399E-3
3.901580013E0,-7.024944760E-3,-2.000582218E-2,9.162971750E-3
3.903705221E0,-4.581485875E-3,-2.367101051E-2,9.162971750E-3
3.905830429E0,-7.024944760E-3,-2.000582218E-2,9.162971750E-3
3.907955638E0,-1.069013402E-2,-6.566796452E-3,7.941242307E-3
3.910080846E0,-1.435532235E-2,8.093958721E-3,7.941242307E-3
3.912206054E0,-1.435532235E-2,6.872228812E-3,5.497782957E-3
3.914331263E0,-7.024944760E-3,-6.566796452E-3,5.497782957E-3
3.916456471E0,-2.138026757E-3,-1.634063199E-2,1.038470119E-2
3.918581679E0,-4.581485875E-3,-1.389717404E-2,7.941242307E-3
3.920706940E0,-8.246674202E-3,-9.010255337E-3,1.038470119E-2
3.922832148E0,-8.246674202E-3,-1.023198478E-2,7.941242307E-3
3.924957304E0,-1.191186346E-2,-9.010255337E-3,9.162971750E-3
3.927082565E0,-9.468403645E-3,-1.145371422E-2,9.162971750E-3
3.929207773E0,-7.024944760E-3,-2.367101051E-2,9.162971750E-3
3.931332981E0,-1.191186346E-2,-2.367101051E-2,7.941242307E-3
3.933458190E0,-1.435532235E-2,-7.788525894E-3,9.162971750E-3
3.935583398E0,-1.679878123E-2,-5.345067009E-3,6.719512399E-3
3.937708606E0,-1.435532235E-2,-7.788525894E-3,5.497782957E-3
3.939833815E0,-1.313359290E-2,-1.267544460E-2,9.162971750E-3
3.941959023E0,-1.191186346E-2,-1.389717404E-2,9.162971750E-3
3.944084231E0,-1.191186346E-2,-1.756236330E-2,7.941242307E-3
3.946209440E0,-9.468403645E-3,-1.878409274E-2,1.038470119E-2
3.948334648E0,-1.313359290E-2,-1.145371422E-2,9.162971750E-3
3.950459856E0,-1.557705179E-2,-9.010255337E-3,7.941242307E-3
3.952585065E0,-1.191186346E-2,-5.345067009E-3,7.941242307E-3
3.954710273E0,-1.069013402E-2,-1.267544460E-2,9.162971750E-3
3.956835533E0,-9.468403645E-3,-2.000582218E-2,9.162971750E-3
3.958960742E0,-8.246674202E-3,-2.122755162E-2,9.162971750E-3
3.961085950E0,-1.191186346E-2,-1.634063199E-2,7.941242307E-3
3.963211158E0,-1.191186346E-2,-4.123337101E-3,7.941242307E-3
3.965336367E0,-1.313359290E-2,-9.010255337E-3,6.719512399E-3
3.967461575E0,-1.069013402E-2,-1.267544460E-2,9.162971750E-3
3.969586783E0,-1.191186346E-2,-5.345067009E-3,7.941242307E-3
3.971711992E0,-1.191186346E-2,-2.901607659E-3,9.162971750E-3
3.973837200E0,-1.069013402E-2,-9.010255337E-3,6.719512399E-3
3.975962408E0,-5.803215317E-3,-1.389717404E-2,9.162971750E-3
3.978087617E0,-1.191186346E-2,-6.566796452E-3,9.162971750E-3
3.980212825E0,-1.069013402E-2,-5.345067009E-3,9.162971750E-3
3.982338033E0,-8.246674202E-3,-1.756236330E-2,1.038470119E-2
3.984463294E0,-1.069013402E-2,-1.634063199E-2,9.162971750E-3
3.986588502E0,-1.435532235E-2,-9.010255337E-3,1.038470119E-2
3.988713711E0,-1.802051067E-2,-4.123337101E-3,9.162971750E-3
3.990838919E0,-1.802051067E-2,-2.901607659E-3,7.941242307E-3
3.992964127E0,-1.191186346E-2,-6.566796452E-3,9.162971750E-3
3.995089336E0,-8.246674202E-3,-2.122755162E-2,9.162971750E-3
3.997214544E0,-8.246674202E-3,-2.489273995E-2,9.162971750E-3
3.999339752E0,-9.468403645E-3,-1.634063199E-2,9.162971750E-3
4.001464961E0,-1.313359290E-2,-5.345067009E-3,7.941242307E-3
4.003590169E0,-1.191186346E-2,-7.788525894E-3,5.497782957E-3
4.005715377E0,-4.581485875E-3,-2.000582218E-2,6.719512399E-3
4.007840586E0,-4.581485875E-3,-2.489273995E-2,7.941242307E-3
4.009965794E0,-8.246674202E-3,-2.489273995E-2,7.941242307E-3
4.012091002E0,-1.313359290E-2,-1.511890348E-2,6.719512399E-3
4.014216211E0,-1.679878123E-2,-2.901607659E-3,5.497782957E-3
4.016341419E0,-1.557705179E-2,-1.679878100E-3,5.497782957E-3
4.018466627E0,-1.069013402E-2,-7.788525894E-3,5.497782957E-3
4.020591888E0,-5.803215317E-3,-1.634063199E-2,7.941242307E-3
4.022717096E0,-2.138026757E-3,-2.367101051E-2,6.719512399E-3
4.024842304E0,-4.581485875E-3,-2.122755162E-2,7.941242307E-3
4.026967513E0,-9.468403645E-3,7.635809598E-4,6.719512399E-3
4.029092721E0,-9.468403645E-3,8.093958721E-3,5.497782957E-3
4.031217929E0,-7.024944760E-3,3.207040019E-3,5.497782957E-3
4.033343138E0,3.970621154E-3,-7.788525894E-3,6.719512399E-3
4.035468346E0,7.635809947E-3,-2.244928107E-2,1.038470119E-2
4.037593554E0,8.857538924E-3,-2.489273995E-2,9.162971750E-3
4.039718763E0,3.054323897E-4,-2.122755162E-2,9.162971750E-3
4.041843971E0,-4.581485875E-3,-5.345067009E-3,6.719512399E-3
4.043969179E0,-8.246674202E-3,7.635809598E-4,6.719512399E-3
4.046094388E0,-7.024944760E-3,-4.581485991E-4,6.719512399E-3
4.048219596E0,-9.162971983E-4,-1.634063199E-2,7.941242307E-3
4.050344856E0,-9.162971983E-4,-2.733619884E-2,9.162971750E-3
4.052470065E0,-2.138026757E-3,-1.389717404E-2,9.162971750E-3
4.054595273E0,-5.803215317E-3,-6.566796452E-3,9.162971750E-3
4.056720481E0,-9.468403645E-3,-5.345067009E-3,6.719512399E-3
4.058845690E0,-9.468403645E-3,-4.581485991E-4,6.719512399E-3
4.060970898E0,-5.803215317E-3,7.635809598E-4,7.941242307E-3
4.063096106E0,1.527161920E-3,-1.756236330E-2,7.941242307E-3
4.065221315E0,5.192350596E-3,-2.977965772E-2,9.162971750E-3
4.067346523E0,1.527161920E-3,-2.000582218E-2,1.038470119E-2
4.069471731E0,-4.581485875E-3,-6.566796452E-3,7.941242307E-3
4.071596940E0,-8.246674202E-3,7.635809598E-4,7.941242307E-3
4.073722148E0,-5.803215317E-3,-4.581485991E-4,6.719512399E-3
4.075847356E0,-2.138026757E-3,-9.010255337E-3,1.038470119E-2
4.077972565E0,3.054323897E-4,-1.511890348E-2,1.038470119E-2
4.080097773E0,-2.138026757E-3,-1.511890348E-2,9.162971750E-3
4.082222981E0,-3.359756200E-3,-1.679878100E-3,1.038470119E-2
4.084348242E0,-7.024944760E-3,-4.581485991E-4,6.719512399E-3
4.086473450E0,-7.024944760E-3,5.650499370E-3,6.719512399E-3
4.088598658E0,-7.024944760E-3,9.315688163E-3,7.941242307E-3
4.090723867E0,-9.162971983E-4,-1.679878100E-3,7.941242307E-3
4.092849075E0,1.527161920E-3,-9.010255337E-3,7.941242307E-3
4.094974283E0,1.527161920E-3,-5.345067009E-3,6.719512399E-3
4.097099492E0,-5.803215317E-3,3.207040019E-3,7.941242307E-3
4.099224700E0,-8.246674202E-3,6.872228812E-3,6.719512399E-3
4.101349908E0,-7.024944760E-3,3.207040019E-3,6.719512399E-3
4.103475117E0,-2.138026757E-3,-1.679878100E-3,7.941242307E-3
4.105600325E0,3.054323897E-4,-9.010255337E-3,1.038470119E-2
4.107725533E0,-9.162971983E-4,-1.023198478E-2,7.941242307E-3
4.109850794E0,-2.138026757E-3,-5.345067009E-3,9.162971750E-3
4.111975950E0,-2.138026757E-3,7.635809598E-4,1.038470119E-2
4.114101211E0,-9.162971983E-4,-4.123337101E-3,7.941242307E-3
4.116226419E0,3.054323897E-4,-1.023198478E-2,7.941242307E-3
4.118351627E0,-9.162971983E-4,-2.901607659E-3,9.162971750E-3
4.120476836E0,3.054323897E-4,3.207040019E-3,6.719512399E-3
4.122602044E0,3.970621154E-3,-1.679878100E-3,5.497782957E-3
4.124727252E0,7.635809947E-3,-1.023198478E-2,7.941242307E-3
4.126852461E0,6.414080039E-3,-1.145371422E-2,1.038470119E-2
4.128977669E0,2.748891478E-3,-6.566796452E-3,6.719512399E-3
4.131102877E0,3.054323897E-4,7.635809598E-4,7.941242307E-3
4.133228086E0,-2.138026757E-3,3.207040019E-3,6.719512399E-3
4.135353294E0,-9.162971983E-4,4.428769462E-3,6.719512399E-3
4.137478502E0,-9.162971983E-4,7.635809598E-4,6.719512399E-3
4.139603711E0,2.748891478E-3,-4.581485991E-4,6.719512399E-3
4.141728919E0,3.970621154E-3,-4.123337101E-3,9.162971750E-3
4.143854179E0,1.527161920E-3,7.635809598E-4,6.719512399E-3
4.145979388E0,-9.162971983E-4,9.315688163E-3,6.719512399E-3
4.148104596E0,-3.359756200E-3,1.908952370E-2,6.719512399E-3
4.150229804E0,1.527161920E-3,1.786779426E-2,7.941242307E-3
4.152355013E0,3.970621154E-3,1.175914705E-2,6.719512399E-3
4.154480221E0,1.007926930E-2,-1.679878100E-3,1.038470119E-2
4.156605429E0,1.007926930E-2,-7.788525894E-3,1.160643063E-2
4.158730638E0,5.192350596E-3,-4.123337101E-3,9.162971750E-3
4.160855846E0,1.527161920E-3,8.093958721E-3,9.162971750E-3
4.162981054E0,-9.162971983E-4,1.175914705E-2,7.941242307E-3
4.165106263E0,-9.162971983E-4,1.053741761E-2,7.941242307E-3
4.167231471E0,3.054323897E-4,3.207040019E-3,6.719512399E-3
4.169356731E0,1.527161920E-3,-6.566796452E-3,7.941242307E-3
4.171481940E0,1.527161920E-3,-6.566796452E-3,1.038470119E-2
4.173607148E0,-2.138026757E-3,-4.123337101E-3,7.941242307E-3
4.175732356E0,-7.024944760E-3,8.093958721E-3,7.941242307E-3
4.177857565E0,-8.246674202E-3,1.786779426E-2,5.497782957E-3
4.179982773E0,-9.162971983E-4,1.175914705E-2,6.719512399E-3
4.182107981E0,6.414080039E-3,-9.010255337E-3,7.941242307E-3
4.184233190E0,8.857538924E-3,-1.878409274E-2,9.162971750E-3
4.186358398E0,7.635809947E-3,-6.566796452E-3,1.038470119E-2
4.188483606E0,1.527161920E-3,1.985310577E-3,9.162971750E-3
4.190608815E0,3.054323897E-4,6.872228812E-3,6.719512399E-3
4.192734023E0,1.527161920E-3,1.298087649E-2,6.719512399E-3
4.194859179E0,2.748891478E-3,9.315688163E-3,7.941242307E-3
4.196984492E0,7.635809947E-3,-6.566796452E-3,7.941242307E-3
4.199109700E0,7.635809947E-3,-2.901607659E-3,7.941242307E-3
4.201234908E0,2.748891478E-3,8.093958721E-3,7.941242307E-3
